packet_id,time_s,accel_x_mps2,accel_y_mps2,accel_z_mps2,ang_vel_x_ds,ang_vel_y_ds,ang_vel_z_ds,baro_altitude_m,reference_altitude_m,agl_altitude_m,estimated_accel_x_mps2,estimated_accel_y_mps2,estimated_accel_z_mps2,estimated_altitude_m,estimated_upward_velocity_mps,pressure_pascals,temperature_c,current_state,motor_target_degrees,motor_actual_degrees,motor_commanded_power,flap_target_degrees
0,60.00,0.63,-0.69,9.52,-1.34,1.22,6.71,1001.43,999.96,1.47,0.63,-0.69,0.01,1001.23,0.07,89860.60,33.21,0,0.00,0.00,0.00,0.00
1,60.51,0.66,-0.67,9.51,-4.27,-0.85,4.64,1001.32,999.96,1.36,0.66,-0.67,-0.01,1001.23,0.05,89861.83,33.23,0,0.00,0.00,0.00,0.00
2,61.01,0.66,-0.67,9.52,5.49,1.10,6.10,1001.48,999.96,1.52,0.66,-0.67,-0.00,1001.25,0.04,89860.05,33.24,0,0.00,0.00,0.00,0.00
3,61.51,0.67,-0.67,9.50,-6.84,-0.98,-8.18,1001.46,999.96,1.51,0.67,-0.67,-0.01,1001.29,0.06,89860.23,33.26,0,0.00,0.00,0.00,0.00
4,62.02,0.66,-0.66,9.52,2.44,0.98,13.31,1001.37,999.96,1.41,0.66,-0.66,0.01,1001.31,0.05,89861.29,33.28,0,0.00,0.00,0.00,0.00
5,62.52,0.67,-0.67,9.52,1.95,0.73,-0.98,1001.41,999.96,1.45,0.67,-0.67,-0.00,1001.30,0.04,89860.83,33.30,0,0.00,0.00,0.00,0.00
6,63.03,0.65,-0.67,9.52,2.56,1.46,-10.62,1001.53,999.96,1.57,0.65,-0.67,0.00,1001.27,0.02,89859.50,33.31,0,0.00,0.00,0.00,0.00
7,63.53,0.68,-0.65,9.53,-8.67,-2.20,1.83,1001.51,999.96,1.55,0.68,-0.65,0.01,1001.34,0.05,89859.71,33.33,0,0.00,0.00,0.00,0.00
8,64.03,0.66,-0.67,9.52,-0.49,-4.76,0.49,1001.46,999.96,1.50,0.66,-0.67,0.00,1001.36,0.05,89860.30,33.34,0,0.00,0.00,0.00,0.00
9,64.54,0.67,-0.65,9.51,-1.34,0.12,2.81,1001.49,999.96,1.53,0.67,-0.65,-0.01,1001.35,0.03,89859.99,33.36,0,0.00,0.00,0.00,0.00
10,65.04,0.65,-0.69,9.51,-2.69,-6.71,0.49,1001.52,999.96,1.56,0.65,-0.69,-0.00,1001.38,0.04,89859.62,33.37,0,0.00,0.00,0.00,0.00
11,65.55,0.64,-0.67,9.51,-3.78,5.62,-1.83,1001.56,999.96,1.60,0.64,-0.67,-0.00,1001.38,0.02,89859.16,33.39,0,0.00,0.00,0.00,0.00
12,66.05,0.68,-0.66,9.52,1.83,2.69,0.37,1001.53,999.96,1.57,0.68,-0.66,0.00,1001.35,0.00,89859.48,33.41,0,0.00,0.00,0.00,0.00
13,66.55,0.65,-0.68,9.53,-5.86,1.22,-6.10,1001.49,999.96,1.53,0.65,-0.68,0.02,1001.33,-0.01,89859.95,33.43,0,0.00,0.00,0.00,0.00
14,67.06,0.66,-0.67,9.51,0.61,-3.66,-2.93,1001.39,999.96,1.43,0.66,-0.67,-0.01,1001.28,-0.03,89861.02,33.44,0,0.00,0.00,0.00,0.00
15,67.56,0.67,-0.65,9.52,3.66,1.46,6.47,1001.44,999.96,1.48,0.67,-0.65,0.00,1001.22,-0.05,89860.46,33.46,0,0.00,0.00,0.00,0.00
16,68.07,0.66,-0.67,9.52,0.98,-3.30,7.32,1001.39,999.96,1.43,0.66,-0.67,0.00,1001.20,-0.05,89861.06,33.47,0,0.00,0.00,0.00,0.00
17,68.57,0.65,-0.67,9.52,2.44,-0.73,-9.28,1001.43,999.96,1.48,0.65,-0.67,0.00,1001.22,-0.02,89860.55,33.49,0,0.00,0.00,0.00,0.00
18,69.07,0.66,-0.66,9.52,3.78,4.88,3.54,1001.50,999.96,1.54,0.66,-0.66,0.00,1001.25,0.00,89859.89,33.50,0,0.00,0.00,0.00,0.00
19,69.58,0.65,-0.68,9.51,6.10,-2.08,-1.10,1001.40,999.96,1.44,0.65,-0.68,-0.00,1001.31,0.03,89860.98,33.52,0,0.00,0.00,0.00,0.00
20,70.08,0.66,-0.68,9.52,3.54,2.44,1.34,1001.45,999.96,1.49,0.66,-0.68,0.01,1001.30,0.01,89860.35,33.53,0,0.00,0.00,0.00,0.00
21,70.59,0.65,-0.69,9.51,-2.44,1.34,-4.88,1001.52,999.96,1.56,0.65,-0.69,-0.01,1001.32,0.02,89859.59,33.55,0,0.00,0.00,0.00,0.00
22,71.09,0.65,-0.69,9.51,-7.32,-1.83,-1.34,1001.58,999.96,1.62,0.65,-0.69,-0.01,1001.36,0.04,89858.95,33.57,0,0.00,0.00,0.00,0.00
23,71.59,0.66,-0.68,9.53,-1.71,-0.73,-2.56,1001.54,999.96,1.59,0.66,-0.68,0.01,1001.37,0.03,89859.37,33.59,0,0.00,0.00,0.00,0.00
24,72.10,0.66,-0.67,9.51,0.73,0.61,3.30,1001.52,999.96,1.56,0.66,-0.67,-0.01,1001.40,0.04,89859.64,33.60,0,0.00,0.00,0.00,0.00
25,72.60,0.66,-0.68,9.53,1.34,6.47,6.35,1001.57,999.96,1.61,0.66,-0.68,0.02,1001.41,0.03,89859.09,33.62,0,0.00,0.00,0.00,0.00
26,73.11,0.65,-0.66,9.53,-0.61,3.78,4.39,1001.43,999.96,1.47,0.65,-0.66,0.01,1001.37,-0.01,89860.63,33.63,0,0.00,0.00,0.00,0.00
27,73.61,0.66,-0.68,9.52,5.98,4.03,-5.74,1001.53,999.96,1.57,0.66,-0.68,0.00,1001.35,-0.01,89859.48,33.64,0,0.00,0.00,0.00,0.00
28,74.11,0.66,-0.67,9.51,-2.56,-11.23,2.20,1001.64,999.96,1.69,0.66,-0.67,-0.00,1001.45,0.06,89858.27,33.66,0,0.00,0.00,0.00,0.00
29,74.62,0.66,-0.67,9.53,-0.24,-5.49,-7.45,1001.50,999.96,1.54,0.66,-0.67,0.02,1001.42,0.01,89859.88,33.68,0,0.00,0.00,0.00,0.00
30,75.12,0.65,-0.67,9.51,4.27,0.49,5.00,1001.68,999.96,1.73,0.65,-0.67,-0.00,1001.50,0.05,89857.83,33.69,0,0.00,0.00,0.00,0.00
31,75.63,0.67,-0.67,9.51,1.22,-3.42,-0.73,1001.65,999.96,1.70,0.67,-0.67,-0.01,1001.57,0.08,89858.16,33.71,0,0.00,0.00,0.00,0.00
32,76.13,0.64,-0.70,9.51,-5.13,0.73,-8.06,1001.65,999.96,1.69,0.64,-0.70,-0.01,1001.61,0.08,89858.20,33.72,0,0.00,0.00,0.00,0.00
33,76.63,0.63,-0.67,9.51,2.81,0.00,2.20,1001.55,999.96,1.60,0.63,-0.67,-0.01,1001.54,0.00,89859.26,33.74,0,0.00,0.00,0.00,0.00
34,77.14,0.66,-0.67,9.52,5.98,-2.08,-5.62,1001.72,999.96,1.76,0.66,-0.67,0.00,1001.52,-0.01,89857.45,33.75,0,0.00,0.00,0.00,0.00
35,77.64,0.69,-0.66,9.53,2.81,-0.61,0.37,1001.69,999.96,1.74,0.69,-0.66,0.01,1001.56,0.02,89857.71,33.77,0,0.00,0.00,0.00,0.00
36,78.15,0.65,-0.66,9.51,1.34,-7.08,3.91,1001.73,999.96,1.77,0.65,-0.66,-0.01,1001.65,0.06,89857.30,33.78,0,0.00,0.00,0.00,0.00
37,78.65,0.65,-0.67,9.52,-4.88,2.44,0.85,1001.64,999.96,1.68,0.65,-0.67,0.01,1001.60,0.02,89858.32,33.79,0,0.00,0.00,0.00,0.00
38,79.15,0.66,-0.67,9.51,2.69,0.49,-0.37,1001.75,999.96,1.79,0.66,-0.67,-0.01,1001.57,0.01,89857.12,33.81,0,0.00,0.00,0.00,0.00
39,79.66,0.64,-0.66,9.52,7.81,2.08,8.54,1001.74,999.96,1.79,0.64,-0.66,0.00,1001.52,-0.03,89857.18,33.83,0,0.00,0.00,0.00,0.00
40,80.16,0.66,-0.68,9.51,4.88,5.74,-0.24,1001.63,999.96,1.67,0.66,-0.68,-0.01,1001.52,-0.02,89858.45,33.84,0,0.00,0.00,0.00,0.00
41,80.67,0.66,-0.66,9.52,-0.98,-1.22,2.44,1001.58,999.96,1.62,0.66,-0.66,-0.00,1001.49,-0.03,89859.00,33.85,0,0.00,0.00,0.00,0.00
42,81.17,0.64,-0.68,9.52,0.73,1.83,2.44,1001.68,999.96,1.72,0.64,-0.68,0.01,1001.51,-0.01,89857.92,33.87,0,0.00,0.00,0.00,0.00
43,81.67,0.64,-0.68,9.52,0.61,0.00,0.49,1001.61,999.96,1.65,0.64,-0.68,0.01,1001.52,0.00,89858.59,33.88,0,0.00,0.00,0.00,0.00
44,82.18,0.66,-0.68,9.50,3.91,3.78,0.49,1001.57,999.96,1.61,0.66,-0.68,-0.01,1001.53,0.01,89859.11,33.89,0,0.00,0.00,0.00,0.00
45,82.68,0.65,-0.65,9.52,3.54,-0.61,1.10,1001.71,999.96,1.75,0.65,-0.65,0.01,1001.58,0.03,89857.53,33.91,0,0.00,0.00,0.00,0.00
46,83.19,0.66,-0.67,9.51,-4.88,3.54,3.42,1001.66,999.96,1.70,0.66,-0.67,-0.01,1001.54,0.01,89858.12,33.92,0,0.00,0.00,0.00,0.00
47,83.69,0.66,-0.68,9.52,-1.95,-0.73,0.00,1001.74,999.96,1.78,0.66,-0.68,0.00,1001.62,0.05,89857.26,33.94,0,0.00,0.00,0.00,0.00
48,84.19,0.65,-0.67,9.50,-4.03,0.85,-1.59,1001.69,999.96,1.74,0.65,-0.67,-0.01,1001.64,0.05,89857.71,33.95,0,0.00,0.00,0.00,0.00
49,84.70,0.66,-0.66,9.52,3.42,-1.10,6.10,1001.87,999.96,1.92,0.66,-0.66,0.01,1001.68,0.06,89855.77,33.97,0,0.00,0.00,0.00,0.00
50,85.20,0.66,-0.67,9.52,-0.49,-2.44,3.17,1001.89,999.96,1.94,0.66,-0.67,-0.00,1001.74,0.08,89855.52,33.98,0,0.00,0.00,0.00,0.00
51,85.71,0.66,-0.67,9.52,0.00,-0.98,-4.03,1001.82,999.96,1.87,0.66,-0.67,0.00,1001.77,0.07,89856.29,34.00,0,0.00,0.00,0.00,0.00
52,86.21,0.67,-0.69,9.52,0.37,-4.15,-10.74,1001.75,999.96,1.79,0.67,-0.69,0.00,1001.80,0.07,89857.12,34.01,0,0.00,0.00,0.00,0.00
53,86.71,0.61,-0.67,9.51,-1.10,4.27,2.69,1001.87,999.96,1.91,0.61,-0.67,-0.00,1001.77,0.04,89855.77,34.02,0,0.00,0.00,0.00,0.00
54,87.22,0.63,-0.64,9.52,-4.27,-2.81,-4.88,1002.06,999.96,2.10,0.63,-0.64,0.01,1001.87,0.10,89853.73,34.03,0,0.00,0.00,0.00,0.00
55,87.72,0.68,-0.70,9.52,-1.34,1.34,-2.20,1001.98,999.96,2.02,0.68,-0.70,-0.00,1001.94,0.11,89854.59,34.04,0,0.00,0.00,0.00,0.00
56,88.23,0.64,-0.67,9.51,-1.10,-4.03,-3.91,1001.97,999.96,2.01,0.64,-0.67,-0.00,1001.89,0.04,89854.74,34.05,0,0.00,0.00,0.00,0.00
57,88.73,0.68,-0.69,9.52,-4.27,6.10,5.62,1001.88,999.96,1.92,0.68,-0.69,-0.00,1001.86,0.01,89855.72,34.06,0,0.00,0.00,0.00,0.00
58,89.23,0.66,-0.65,9.51,2.08,-1.46,0.61,1001.84,999.96,1.88,0.66,-0.65,-0.01,1001.66,-0.09,89856.12,34.07,0,0.00,0.00,0.00,0.00
59,89.74,0.67,-0.67,9.51,4.03,-2.08,5.49,1001.80,999.96,1.84,0.67,-0.67,-0.01,1001.61,-0.09,89856.57,34.09,0,0.00,0.00,0.00,0.00
60,90.24,0.63,-0.64,9.51,-0.85,-1.10,6.59,1002.16,999.96,2.20,0.63,-0.64,-0.00,1001.79,0.05,89852.65,34.10,0,0.00,0.00,0.00,0.00
61,90.75,0.64,-0.67,9.51,-0.73,-2.20,1.34,1002.09,999.96,2.13,0.64,-0.67,-0.00,1001.91,0.10,89853.38,34.12,0,0.00,0.00,0.00,0.00
62,91.25,0.67,-0.66,9.51,0.61,4.76,5.00,1002.16,999.96,2.20,0.67,-0.66,-0.01,1001.95,0.09,89852.65,34.13,0,0.00,0.00,0.00,0.00
63,91.75,0.68,-0.69,9.51,-2.56,4.27,-1.34,1002.15,999.96,2.19,0.68,-0.69,-0.00,1002.15,0.16,89852.75,34.14,0,0.00,0.00,0.00,0.00
64,92.26,0.64,-0.66,9.51,0.85,-2.32,3.78,1002.03,999.96,2.08,0.64,-0.66,-0.01,1002.02,0.05,89853.99,34.16,0,0.00,0.00,0.00,0.00
65,92.76,0.66,-0.64,9.51,2.93,-1.10,-2.93,1002.12,999.96,2.16,0.66,-0.64,-0.00,1001.99,0.01,89853.06,34.17,0,0.00,0.00,0.00,0.00
66,93.27,0.64,-0.67,9.52,2.08,-5.13,0.98,1002.11,999.96,2.15,0.64,-0.67,0.00,1002.02,0.03,89853.17,34.18,0,0.00,0.00,0.00,0.00
67,93.77,0.67,-0.70,9.51,4.03,-4.39,-2.56,1002.01,999.96,2.05,0.67,-0.70,-0.00,1001.99,-0.01,89854.29,34.20,0,0.00,0.00,0.00,0.00
68,94.27,0.65,-0.67,9.52,1.95,2.69,0.12,1002.07,999.96,2.11,0.65,-0.67,0.00,1001.98,-0.01,89853.62,34.21,0,0.00,0.00,0.00,0.00
69,94.78,0.63,-0.66,9.51,3.54,0.73,-0.61,1002.05,999.96,2.09,0.63,-0.66,-0.00,1001.98,-0.00,89853.83,34.23,0,0.00,0.00,0.00,0.00
70,95.28,0.60,-0.64,9.52,-6.23,-7.45,-5.62,1002.11,999.96,2.15,0.60,-0.64,-0.00,1002.02,0.02,89853.18,34.24,0,0.00,0.00,0.00,0.00
71,95.79,0.68,-0.70,9.52,-0.37,1.34,5.13,1002.14,999.96,2.19,0.68,-0.70,0.01,1002.07,0.05,89852.82,34.25,0,0.00,0.00,0.00,0.00
72,96.29,0.66,-0.70,9.51,2.93,-0.73,3.30,1002.17,999.96,2.21,0.66,-0.70,-0.00,1002.04,0.02,89852.55,34.27,0,0.00,0.00,0.00,0.00
73,96.79,0.60,-0.64,9.52,-2.44,-5.25,3.30,1001.98,999.96,2.03,0.60,-0.64,0.01,1001.95,-0.05,89854.54,34.28,0,0.00,0.00,0.00,0.00
74,97.30,0.66,-0.66,9.52,0.61,5.37,1.10,1002.19,999.96,2.24,0.66,-0.66,-0.00,1001.99,0.00,89852.28,34.29,0,0.00,0.00,0.00,0.00
75,97.80,0.69,-0.73,9.51,2.32,-3.66,3.30,1002.01,999.96,2.05,0.69,-0.73,-0.01,1002.00,0.00,89854.29,34.31,0,0.00,0.00,0.00,0.00
76,98.31,0.68,-0.67,9.52,5.86,-4.27,0.00,1002.16,999.96,2.20,0.68,-0.67,0.00,1001.98,-0.02,89852.66,34.32,0,0.00,0.00,0.00,0.00
77,98.81,0.65,-0.66,9.51,2.32,4.27,3.30,1002.05,999.96,2.10,0.65,-0.66,-0.01,1002.00,0.00,89853.80,34.33,0,0.00,0.00,0.00,0.00
78,99.31,0.67,-0.69,9.51,-5.74,2.56,-8.42,1002.17,999.96,2.21,0.67,-0.69,-0.00,1002.05,0.03,89852.53,34.35,0,0.00,0.00,0.00,0.00
79,99.82,0.67,-0.67,9.51,7.08,5.37,5.74,1002.25,999.96,2.29,0.67,-0.67,-0.00,1002.16,0.08,89851.64,34.36,0,0.00,0.00,0.00,0.00
80,100.32,0.65,-0.68,9.52,0.85,-0.37,2.69,1002.38,999.96,2.43,0.65,-0.68,0.00,1002.24,0.10,89850.20,34.37,0,0.00,0.00,0.00,0.00
81,100.83,0.66,-0.67,9.52,-1.22,0.37,1.83,1002.38,999.96,2.42,0.66,-0.67,-0.00,1002.24,0.08,89850.29,34.38,0,0.00,0.00,0.00,0.00
82,101.33,0.64,-0.65,9.52,0.12,5.25,4.39,1002.27,999.96,2.31,0.64,-0.65,0.00,1002.23,0.05,89851.45,34.40,0,0.00,0.00,0.00,0.00
83,101.83,0.67,-0.67,9.51,3.17,4.15,1.34,1002.24,999.96,2.28,0.67,-0.67,-0.00,1002.21,0.02,89851.75,34.40,0,0.00,0.00,0.00,0.00
84,102.34,0.67,-0.67,9.51,-2.08,-2.81,1.46,1002.20,999.96,2.24,0.67,-0.67,-0.01,1002.17,-0.01,89852.24,34.42,0,0.00,0.00,0.00,0.00
85,102.84,0.66,-0.68,9.51,5.25,1.22,7.45,1002.26,999.96,2.30,0.66,-0.68,-0.01,1002.17,-0.00,89851.58,34.43,0,0.00,0.00,0.00,0.00
86,103.35,0.63,-0.67,9.51,2.44,0.00,1.10,1002.38,999.96,2.43,0.63,-0.67,-0.00,1002.22,0.03,89850.19,34.43,0,0.00,0.00,0.00,0.00
87,103.85,0.66,-0.68,9.52,5.00,1.83,1.10,1002.39,999.96,2.43,0.66,-0.68,0.00,1002.28,0.06,89850.14,34.44,0,0.00,0.00,0.00,0.00
88,104.35,0.68,-0.69,9.52,-0.61,4.03,1.59,1002.27,999.96,2.31,0.68,-0.69,-0.00,1002.31,0.06,89851.45,34.45,0,0.00,0.00,0.00,0.00
89,104.86,0.65,-0.66,9.51,-0.73,5.13,5.00,1002.43,999.96,2.48,0.65,-0.66,-0.01,1002.28,0.02,89849.66,34.46,0,0.00,0.00,0.00,0.00
90,105.36,0.65,-0.68,9.52,6.59,1.34,-3.78,1002.30,999.96,2.34,0.65,-0.68,0.00,1002.30,0.03,89851.09,34.47,0,0.00,0.00,0.00,0.00
91,105.87,0.71,-0.68,9.51,2.93,-3.42,-8.67,1002.32,999.96,2.36,0.71,-0.68,-0.01,1002.27,0.00,89850.85,34.49,0,0.00,0.00,0.00,0.00
92,106.37,0.64,-0.67,9.52,1.22,-0.37,-3.78,1002.28,999.96,2.33,0.64,-0.67,-0.00,1002.24,-0.01,89851.30,34.51,0,0.00,0.00,0.00,0.00
93,106.87,0.64,-0.64,9.52,-2.56,-5.98,3.30,1002.33,999.96,2.37,0.64,-0.64,0.01,1002.21,-0.02,89850.79,34.52,0,0.00,0.00,0.00,0.00
94,107.38,0.67,-0.69,9.52,-3.91,1.22,-0.49,1002.45,999.96,2.49,0.67,-0.69,0.01,1002.29,0.03,89849.48,34.53,0,0.00,0.00,0.00,0.00
95,107.88,0.67,-0.69,9.51,1.46,-0.61,3.05,1002.39,999.96,2.43,0.67,-0.69,-0.01,1002.36,0.06,89850.17,34.54,0,0.00,0.00,0.00,0.00
96,108.39,0.64,-0.66,9.53,-4.03,2.20,0.98,1002.28,999.96,2.33,0.64,-0.66,0.01,1002.35,0.03,89851.29,34.55,0,0.00,0.00,0.00,0.00
97,108.89,0.64,-0.66,9.52,-2.69,5.98,-0.37,1002.30,999.96,2.34,0.64,-0.66,0.01,1002.32,0.01,89851.12,34.57,0,0.00,0.00,0.00,0.00
98,109.39,0.66,-0.68,9.52,0.49,-4.76,1.59,1002.18,999.96,2.22,0.66,-0.68,0.01,1002.23,-0.04,89852.38,34.58,0,0.00,0.00,0.00,0.00
99,109.90,0.66,-0.66,9.51,0.49,5.13,1.71,1002.38,999.96,2.42,0.66,-0.66,-0.00,1002.23,-0.03,89850.24,34.59,0,0.00,0.00,0.00,0.00
100,110.40,0.64,-0.66,9.51,-0.85,0.37,1.10,1002.33,999.96,2.37,0.64,-0.66,-0.00,1002.25,-0.01,89850.77,34.60,0,0.00,0.00,0.00,0.00
101,110.91,0.67,-0.72,9.51,-6.96,4.64,-1.46,1002.28,999.96,2.32,0.67,-0.72,-0.00,1002.24,-0.01,89851.31,34.61,0,0.00,0.00,0.00,0.00
102,111.41,0.68,-0.68,9.51,0.85,0.00,4.39,1002.33,999.96,2.37,0.68,-0.68,-0.01,1002.26,0.00,89850.78,34.63,0,0.00,0.00,0.00,0.00
103,111.91,0.59,-0.63,9.51,-0.85,-1.46,2.44,1002.27,999.96,2.31,0.59,-0.63,-0.01,1002.27,0.01,89851.43,34.64,0,0.00,0.00,0.00,0.00
104,112.42,0.65,-0.64,9.52,-2.93,4.88,4.27,1002.31,999.96,2.36,0.65,-0.64,0.00,1002.20,-0.04,89850.96,34.65,0,0.00,0.00,0.00,0.00
105,112.92,0.65,-0.70,9.51,-0.73,1.46,2.69,1002.66,999.96,2.70,0.65,-0.70,-0.01,1002.36,0.06,89847.18,34.65,0,0.00,0.00,0.00,0.00
106,113.43,0.67,-0.67,9.52,2.08,0.12,-2.08,1002.50,999.96,2.54,0.67,-0.67,0.00,1002.47,0.10,89848.97,34.67,0,0.00,0.00,0.00,0.00
107,113.93,0.66,-0.69,9.51,-2.08,-4.03,-4.03,1002.33,999.96,2.38,0.66,-0.69,-0.00,1002.40,0.04,89850.75,34.68,0,0.00,0.00,0.00,0.00
108,114.43,0.70,-0.72,9.52,1.71,-4.52,-5.13,1002.39,999.96,2.43,0.70,-0.72,-0.00,1002.36,0.00,89850.12,34.69,0,0.00,0.00,0.00,0.00
109,114.94,0.67,-0.69,9.51,-5.00,3.78,-0.61,1002.50,999.96,2.54,0.67,-0.69,-0.00,1002.39,0.02,89848.91,34.70,0,0.00,0.00,0.00,0.00
110,115.44,0.62,-0.64,9.52,3.17,5.98,11.23,1002.64,999.96,2.68,0.62,-0.64,0.01,1002.43,0.04,89847.37,34.71,0,0.00,0.00,0.00,0.00
111,115.95,0.64,-0.63,9.52,0.00,-6.47,4.88,1002.48,999.96,2.52,0.64,-0.63,-0.00,1002.52,0.08,89849.16,34.73,0,0.00,0.00,0.00,0.00
112,116.45,0.68,-0.71,9.52,-0.49,-1.95,-0.85,1002.62,999.96,2.67,0.68,-0.71,-0.00,1002.51,0.04,89847.58,34.74,0,0.00,0.00,0.00,0.00
113,116.95,0.68,-0.67,9.52,0.24,8.42,-0.24,1002.54,999.96,2.58,0.68,-0.67,0.01,1002.55,0.06,89848.48,34.75,0,0.00,0.00,0.00,0.00
114,117.46,0.65,-0.65,9.52,0.98,0.85,2.08,1002.52,999.96,2.56,0.65,-0.65,0.01,1002.53,0.03,89848.73,34.76,0,0.00,0.00,0.00,0.00
115,117.96,0.65,-0.68,9.51,-2.44,-1.46,2.20,1002.52,999.96,2.57,0.65,-0.68,-0.00,1002.52,0.02,89848.67,34.77,0,0.00,0.00,0.00,0.00
116,118.47,0.68,-0.68,9.51,-4.76,4.27,0.00,1002.50,999.96,2.54,0.68,-0.68,-0.01,1002.52,0.01,89848.92,34.78,0,0.00,0.00,0.00,0.00
117,118.97,0.66,-0.66,9.51,-1.10,-2.20,-1.59,1002.52,999.96,2.57,0.66,-0.66,-0.01,1002.50,-0.00,89848.66,34.79,0,0.00,0.00,0.00,0.00
118,119.47,0.64,-0.63,9.51,0.00,-2.93,-1.46,1002.53,999.96,2.57,0.64,-0.63,-0.01,1002.42,-0.05,89848.59,34.81,0,0.00,0.00,0.00,0.00
119,119.98,0.67,-0.69,9.52,-0.73,3.17,2.93,1002.45,999.96,2.49,0.67,-0.69,0.00,1002.43,-0.02,89849.45,34.82,0,0.00,0.00,0.00,0.00
120,120.48,0.66,-0.66,9.51,1.46,-2.08,4.39,1002.42,999.96,2.46,0.66,-0.66,-0.01,1002.40,-0.03,89849.83,34.83,0,0.00,0.00,0.00,0.00
121,120.99,0.65,-0.67,9.51,-5.13,-4.64,-2.81,1002.55,999.96,2.59,0.65,-0.67,-0.00,1002.43,0.00,89848.36,34.84,0,0.00,0.00,0.00,0.00
122,121.49,0.62,-0.66,9.52,2.81,-4.03,-0.61,1002.35,999.96,2.39,0.62,-0.66,-0.00,1002.40,-0.02,89850.60,34.85,0,0.00,0.00,0.00,0.00
123,121.99,0.65,-0.68,9.51,1.95,-0.61,-3.42,1002.46,999.96,2.50,0.65,-0.68,-0.01,1002.36,-0.03,89849.38,34.86,0,0.00,0.00,0.00,0.00
124,122.50,0.65,-0.68,9.50,-2.69,-4.03,-6.23,1002.54,999.96,2.58,0.65,-0.68,-0.02,1002.38,0.00,89848.52,34.87,0,0.00,0.00,0.00,0.00
125,123.00,0.66,-0.66,9.52,1.22,-0.12,-6.47,1002.54,999.96,2.58,0.66,-0.66,0.00,1002.40,0.01,89848.48,34.88,0,0.00,0.00,0.00,0.00
126,123.51,0.65,-0.67,9.52,4.76,4.15,4.27,1002.47,999.96,2.51,0.65,-0.67,0.00,1002.38,-0.00,89849.25,34.90,0,0.00,0.00,0.00,0.00
127,124.01,0.66,-0.68,9.52,-2.69,0.61,-2.93,1002.74,999.96,2.78,0.66,-0.68,0.00,1002.47,0.05,89846.35,34.90,0,0.00,0.00,0.00,0.00
128,124.51,0.66,-0.67,9.51,0.00,-6.96,0.24,1002.59,999.96,2.63,0.66,-0.67,-0.01,1002.57,0.10,89847.99,34.91,0,0.00,0.00,0.00,0.00
129,125.02,0.66,-0.68,9.52,-4.27,-3.30,-5.74,1002.69,999.96,2.73,0.66,-0.68,0.00,1002.65,0.11,89846.89,34.91,0,0.00,0.00,0.00,0.00
130,125.52,0.66,-0.67,9.53,-0.37,1.59,-2.32,1002.58,999.96,2.62,0.66,-0.67,0.01,1002.56,0.04,89848.03,34.93,0,0.00,0.00,0.00,0.00
131,126.03,0.65,-0.69,9.52,-0.61,-3.66,8.30,1002.66,999.96,2.71,0.65,-0.69,0.00,1002.55,0.03,89847.14,34.94,0,0.00,0.00,0.00,0.00
132,126.53,0.65,-0.69,9.51,-1.34,7.08,1.34,1002.67,999.96,2.71,0.65,-0.69,-0.01,1002.62,0.06,89847.11,34.95,0,0.00,0.00,0.00,0.00
133,127.03,0.65,-0.67,9.52,-6.59,-4.27,2.20,1002.82,999.96,2.86,0.65,-0.67,0.00,1002.65,0.06,89845.47,34.96,0,0.00,0.00,0.00,0.00
134,127.54,0.66,-0.66,9.53,8.54,-1.59,5.62,1002.62,999.96,2.66,0.66,-0.66,0.01,1002.62,0.02,89847.62,34.97,0,0.00,0.00,0.00,0.00
135,128.04,0.65,-0.67,9.52,-0.73,0.00,6.96,1002.63,999.96,2.67,0.65,-0.67,0.01,1002.58,-0.01,89847.49,34.99,0,0.00,0.00,0.00,0.00
136,128.55,0.61,-0.74,9.52,-0.98,-0.98,-3.17,1002.50,999.96,2.54,0.61,-0.74,0.00,1002.57,-0.01,89848.97,35.00,0,0.00,0.00,0.00,0.00
137,129.05,0.67,-0.70,9.52,0.00,-2.69,-7.93,1002.57,999.96,2.61,0.67,-0.70,0.00,1002.55,-0.02,89848.16,35.01,0,0.00,0.00,0.00,0.00
138,129.55,0.61,-0.68,9.52,6.35,-1.46,-0.98,1002.62,999.96,2.66,0.61,-0.68,0.00,1002.55,-0.01,89847.60,35.03,0,0.00,0.00,0.00,0.00
139,130.06,0.67,-0.70,9.52,7.08,3.78,-4.03,1002.41,999.96,2.45,0.67,-0.70,-0.00,1002.48,-0.06,89849.88,35.04,0,0.00,0.00,0.00,0.00
140,130.56,0.66,-0.69,9.51,-2.32,2.32,-0.73,1002.52,999.96,2.56,0.66,-0.69,-0.00,1002.43,-0.07,89848.71,35.05,0,0.00,0.00,0.00,0.00
141,131.07,0.66,-0.67,9.52,3.54,5.25,0.49,1002.56,999.96,2.61,0.66,-0.67,0.00,1002.47,-0.02,89848.23,35.05,0,0.00,0.00,0.00,0.00
142,131.57,0.68,-0.67,9.52,-2.69,-1.34,1.71,1002.70,999.96,2.75,0.68,-0.67,0.00,1002.52,0.02,89846.73,35.06,0,0.00,0.00,0.00,0.00
143,132.07,0.65,-0.64,9.51,0.24,-3.30,4.88,1002.71,999.96,2.75,0.65,-0.64,-0.00,1002.57,0.05,89846.69,35.08,0,0.00,0.00,0.00,0.00
144,132.58,0.65,-0.67,9.53,2.44,3.42,6.71,1002.77,999.96,2.81,0.65,-0.67,0.01,1002.61,0.06,89846.02,35.09,0,0.00,0.00,0.00,0.00
145,133.08,0.67,-0.66,9.51,5.25,3.78,-4.64,1002.75,999.96,2.80,0.67,-0.66,-0.00,1002.66,0.07,89846.16,35.10,0,0.00,0.00,0.00,0.00
146,133.59,0.68,-0.68,9.52,0.49,-4.88,4.39,1002.56,999.96,2.60,0.68,-0.68,0.01,1002.61,0.01,89848.29,35.11,0,0.00,0.00,0.00,0.00
147,134.09,0.67,-0.62,9.52,5.74,1.34,4.39,1002.70,999.96,2.74,0.67,-0.62,0.00,1002.62,0.01,89846.74,35.12,0,0.00,0.00,0.00,0.00
148,134.59,0.68,-0.68,9.50,1.22,-2.93,0.00,1002.84,999.96,2.88,0.68,-0.68,-0.01,1002.59,-0.01,89845.26,35.13,0,0.00,0.00,0.00,0.00
149,135.10,0.65,-0.67,9.51,-4.15,-1.34,-1.22,1002.82,999.96,2.86,0.65,-0.67,-0.00,1002.66,0.04,89845.48,35.15,0,0.00,0.00,0.00,0.00
150,135.60,0.65,-0.64,9.52,3.78,6.59,6.35,1002.70,999.96,2.74,0.65,-0.64,0.01,1002.65,0.02,89846.78,35.16,0,0.00,0.00,0.00,0.00
151,136.11,0.69,-0.67,9.52,-4.27,3.05,-0.37,1002.72,999.96,2.77,0.69,-0.67,0.00,1002.65,0.01,89846.48,35.17,0,0.00,0.00,0.00,0.00
152,136.61,0.66,-0.67,9.52,-2.44,-4.27,1.95,1002.70,999.96,2.74,0.66,-0.67,0.00,1002.58,-0.02,89846.77,35.18,0,0.00,0.00,0.00,0.00
153,137.11,0.64,-0.68,9.51,0.00,-0.12,2.32,1002.81,999.96,2.85,0.64,-0.68,-0.01,1002.64,0.02,89845.52,35.19,0,0.00,0.00,0.00,0.00
154,137.62,0.69,-0.66,9.52,1.34,-6.71,-2.56,1002.80,999.96,2.84,0.69,-0.66,0.00,1002.69,0.04,89845.67,35.20,0,0.00,0.00,0.00,0.00
155,138.12,0.66,-0.66,9.52,1.34,-2.69,-2.08,1002.82,999.96,2.86,0.66,-0.66,0.00,1002.70,0.04,89845.45,35.21,0,0.00,0.00,0.00,0.00
156,138.63,0.65,-0.66,9.50,3.54,2.81,1.10,1002.68,999.96,2.72,0.65,-0.66,-0.01,1002.69,0.02,89846.95,35.22,0,0.00,0.00,0.00,0.00
157,139.13,0.66,-0.64,9.51,1.59,2.20,2.08,1002.71,999.96,2.75,0.66,-0.64,-0.00,1002.69,0.01,89846.65,35.23,0,0.00,0.00,0.00,0.00
158,139.63,0.68,-0.67,9.52,5.98,-2.44,-4.27,1002.73,999.96,2.77,0.68,-0.67,0.00,1002.70,0.01,89846.46,35.24,0,0.00,0.00,0.00,0.00
159,140.14,0.64,-0.65,9.52,4.39,3.78,-6.84,1002.68,999.96,2.72,0.64,-0.65,0.00,1002.62,-0.03,89846.96,35.25,0,0.00,0.00,0.00,0.00
160,140.64,0.64,-0.65,9.52,1.22,-1.46,-2.81,1002.67,999.96,2.71,0.64,-0.65,0.01,1002.57,-0.06,89847.09,35.25,0,0.00,0.00,0.00,0.00
161,141.15,0.67,-0.64,9.52,-3.66,2.08,7.81,1002.98,999.96,3.03,0.67,-0.64,0.00,1002.69,0.04,89843.66,35.26,0,0.00,0.00,0.00,0.00
162,141.65,0.66,-0.68,9.51,-0.49,-0.49,0.85,1002.86,999.96,2.91,0.66,-0.68,-0.00,1002.77,0.07,89844.97,35.28,0,0.00,0.00,0.00,0.00
163,142.15,0.70,-0.67,9.52,1.10,-0.12,0.00,1002.89,999.96,2.94,0.70,-0.67,0.01,1002.85,0.10,89844.64,35.29,0,0.00,0.00,0.00,0.00
164,142.66,0.67,-0.66,9.51,-0.98,1.83,-0.85,1002.85,999.96,2.89,0.67,-0.66,-0.00,1002.87,0.08,89845.11,35.30,0,0.00,0.00,0.00,0.00
165,143.16,0.64,-0.65,9.51,0.49,3.78,4.15,1002.91,999.96,2.96,0.64,-0.65,-0.00,1002.83,0.04,89844.41,35.31,0,0.00,0.00,0.00,0.00
166,143.67,0.65,-0.65,9.51,-4.39,-3.30,1.22,1002.93,999.96,2.97,0.65,-0.65,-0.00,1002.80,0.01,89844.30,35.32,0,0.00,0.00,0.00,0.00
167,144.17,0.66,-0.66,9.52,-2.93,-5.37,-2.32,1002.81,999.96,2.85,0.66,-0.66,0.01,1002.73,-0.05,89845.55,35.33,0,0.00,0.00,0.00,0.00
168,144.67,0.66,-0.65,9.52,-2.93,-1.95,-4.39,1002.91,999.96,2.95,0.66,-0.65,0.00,1002.73,-0.03,89844.46,35.33,0,0.00,0.00,0.00,0.00
169,145.18,0.65,-0.67,9.52,4.52,-2.93,3.42,1002.81,999.96,2.86,0.65,-0.67,0.00,1002.73,-0.02,89845.51,35.34,0,0.00,0.00,0.00,0.00
170,145.68,0.67,-0.69,9.51,1.22,-1.83,0.24,1002.96,999.96,3.00,0.67,-0.69,-0.00,1002.80,0.03,89843.93,35.35,0,0.00,0.00,0.00,0.00
171,146.19,0.65,-0.69,9.50,2.81,5.00,-6.47,1002.85,999.96,2.89,0.65,-0.69,-0.02,1002.78,0.01,89845.14,35.36,0,0.00,0.00,0.00,0.00
172,146.69,0.63,-0.65,9.52,0.61,-0.85,-1.83,1002.97,999.96,3.01,0.63,-0.65,-0.00,1002.82,0.03,89843.83,35.37,0,0.00,0.00,0.00,0.00
173,147.19,0.66,-0.68,9.50,0.73,-1.83,0.12,1002.85,999.96,2.89,0.66,-0.68,-0.01,1002.75,-0.01,89845.09,35.37,0,0.00,0.00,0.00,0.00
174,147.70,0.67,-0.66,9.51,4.03,2.32,6.10,1002.84,999.96,2.89,0.67,-0.66,-0.00,1002.71,-0.03,89845.20,35.38,0,0.00,0.00,0.00,0.00
175,148.20,0.67,-0.66,9.51,0.12,0.85,-2.81,1002.77,999.96,2.81,0.67,-0.66,-0.01,1002.70,-0.03,89845.95,35.38,0,0.00,0.00,0.00,0.00
176,148.71,0.65,-0.66,9.52,-0.12,-1.46,-6.35,1002.83,999.96,2.87,0.65,-0.66,0.01,1002.71,-0.01,89845.31,35.40,0,0.00,0.00,0.00,0.00
177,149.21,0.67,-0.66,9.53,0.85,-3.54,-3.66,1002.75,999.96,2.79,0.67,-0.66,0.02,1002.68,-0.03,89846.27,35.40,0,0.00,0.00,0.00,0.00
178,149.71,0.65,-0.66,9.52,5.74,1.34,-2.81,1002.87,999.96,2.91,0.65,-0.66,0.00,1002.68,-0.02,89844.94,35.41,0,0.00,0.00,0.00,0.00
179,150.22,0.68,-0.66,9.51,3.05,-1.46,-3.78,1002.82,999.96,2.86,0.68,-0.66,-0.00,1002.80,0.05,89845.45,35.42,0,0.00,0.00,0.00,0.00
180,150.72,0.66,-0.66,9.51,4.76,-1.10,-5.13,1002.88,999.96,2.92,0.66,-0.66,-0.01,1002.82,0.05,89844.77,35.43,0,0.00,0.00,0.00,0.00
181,151.23,0.67,-0.67,9.51,1.95,-4.64,0.00,1003.02,999.96,3.07,0.67,-0.67,-0.01,1002.84,0.05,89843.24,35.45,0,0.00,0.00,0.00,0.00
182,151.73,0.69,-0.67,9.52,3.66,-1.10,-1.95,1002.98,999.96,3.03,0.69,-0.67,0.00,1002.95,0.11,89843.67,35.45,0,0.00,0.00,0.00,0.00
183,152.23,0.65,-0.69,9.51,-2.69,-1.34,-0.37,1003.00,999.96,3.04,0.65,-0.69,-0.00,1002.95,0.08,89843.47,35.46,0,0.00,0.00,0.00,0.00
184,152.74,0.66,-0.66,9.52,2.08,-2.32,0.12,1002.99,999.96,3.03,0.66,-0.66,0.01,1002.99,0.08,89843.61,35.47,0,0.00,0.00,0.00,0.00
185,153.24,0.66,-0.68,9.51,-8.30,-0.12,-4.64,1002.93,999.96,2.98,0.66,-0.68,-0.01,1002.92,0.00,89844.20,35.48,0,0.00,0.00,0.00,0.00
186,153.75,0.67,-0.69,9.50,-2.32,-5.13,1.34,1003.02,999.96,3.06,0.67,-0.69,-0.01,1002.94,0.02,89843.27,35.49,0,0.00,0.00,0.00,0.00
187,154.25,0.65,-0.68,9.52,-2.08,1.34,-2.32,1002.85,999.96,2.89,0.65,-0.68,0.01,1002.92,0.01,89845.17,35.50,0,0.00,0.00,0.00,0.00
188,154.75,0.66,-0.68,9.51,-1.22,4.15,2.08,1003.03,999.96,3.07,0.66,-0.68,-0.01,1002.88,-0.02,89843.17,35.50,0,0.00,0.00,0.00,0.00
189,155.26,0.69,-0.69,9.51,-1.46,-0.49,-0.24,1003.12,999.96,3.17,0.69,-0.69,-0.00,1002.99,0.05,89842.15,35.51,0,0.00,0.00,0.00,0.00
190,155.76,0.66,-0.68,9.51,8.06,3.66,7.57,1003.13,999.96,3.17,0.66,-0.68,-0.01,1003.10,0.09,89842.09,35.52,0,0.00,0.00,0.00,0.00
191,156.27,0.66,-0.65,9.51,-0.12,-5.62,-2.93,1003.02,999.96,3.06,0.66,-0.65,0.00,1003.02,0.01,89843.28,35.53,0,0.00,0.00,0.00,0.00
192,156.77,0.64,-0.67,9.52,-3.05,-5.00,-3.78,1003.15,999.96,3.19,0.64,-0.67,0.01,1003.04,0.03,89841.89,35.54,0,0.00,0.00,0.00,0.00
193,157.27,0.67,-0.67,9.52,1.46,-2.56,0.98,1003.18,999.96,3.23,0.67,-0.67,0.01,1003.10,0.06,89841.46,35.55,0,0.00,0.00,0.00,0.00
194,157.78,0.68,-0.68,9.53,-1.59,-8.30,1.22,1003.16,999.96,3.20,0.68,-0.68,0.01,1003.14,0.06,89841.75,35.56,0,0.00,0.00,0.00,0.00
195,158.28,0.67,-0.68,9.50,-5.37,-1.10,1.59,1003.03,999.96,3.07,0.67,-0.68,-0.01,1003.07,0.01,89843.18,35.57,0,0.00,0.00,0.00,0.00
196,158.79,0.67,-0.64,9.51,-0.24,-0.49,2.44,1003.13,999.96,3.17,0.67,-0.64,-0.01,1003.02,-0.02,89842.11,35.58,0,0.00,0.00,0.00,0.00
197,159.29,0.66,-0.67,9.51,1.83,-3.05,11.84,1002.88,999.96,2.92,0.66,-0.67,-0.00,1002.97,-0.05,89844.85,35.59,0,0.00,0.00,0.00,0.00
198,159.79,0.67,-0.69,9.50,8.91,3.05,1.10,1002.76,999.96,2.80,0.67,-0.69,-0.01,1002.82,-0.13,89846.09,35.59,0,0.00,0.00,0.00,0.00
199,160.30,0.65,-0.67,9.52,1.71,-5.62,-7.32,1002.81,999.96,2.85,0.65,-0.67,0.00,1002.80,-0.10,89845.58,35.60,0,0.00,0.00,0.00,0.00
200,160.80,0.62,-0.63,9.52,-0.85,-3.54,1.83,1002.88,999.96,2.92,0.62,-0.63,0.00,1002.81,-0.06,89844.80,35.60,0,0.00,0.00,0.00,0.00
201,161.31,0.66,-0.64,9.52,2.08,-1.34,-0.24,1002.83,999.96,2.87,0.66,-0.64,0.00,1002.84,-0.03,89845.30,35.61,0,0.00,0.00,0.00,0.00
202,161.81,0.66,-0.68,9.52,3.42,0.49,-0.61,1002.96,999.96,3.01,0.66,-0.68,0.00,1002.87,0.00,89843.88,35.62,0,0.00,0.00,0.00,0.00
203,162.31,0.64,-0.69,9.51,0.61,1.22,3.66,1002.89,999.96,2.93,0.64,-0.69,-0.00,1002.83,-0.02,89844.67,35.63,0,0.00,0.00,0.00,0.00
204,162.82,0.65,-0.70,9.52,-4.39,2.81,1.71,1002.91,999.96,2.95,0.65,-0.70,0.01,1002.92,0.04,89844.48,35.64,0,0.00,0.00,0.00,0.00
205,163.32,0.66,-0.69,9.51,3.05,-3.42,0.49,1002.88,999.96,2.92,0.66,-0.69,-0.01,1002.97,0.06,89844.80,35.65,0,0.00,0.00,0.00,0.00
206,163.83,0.69,-0.66,9.52,1.59,-1.71,-1.59,1002.99,999.96,3.03,0.69,-0.66,0.00,1002.95,0.03,89843.65,35.66,0,0.00,0.00,0.00,0.00
207,164.33,0.64,-0.72,9.51,-1.34,0.24,-5.13,1003.08,999.96,3.12,0.64,-0.72,-0.01,1002.98,0.05,89842.62,35.67,0,0.00,0.00,0.00,0.00
208,164.83,0.64,-0.65,9.52,-4.39,-0.49,0.73,1003.15,999.96,3.19,0.64,-0.65,0.01,1003.04,0.07,89841.89,35.68,0,0.00,0.00,0.00,0.00
209,165.34,0.64,-0.69,9.51,0.73,1.10,3.78,1002.99,999.96,3.03,0.64,-0.69,-0.00,1003.02,0.04,89843.62,35.69,0,0.00,0.00,0.00,0.00
210,165.84,0.64,-0.64,9.51,3.54,-6.96,-6.59,1003.14,999.96,3.18,0.64,-0.64,-0.00,1003.03,0.04,89841.95,35.69,0,0.00,0.00,0.00,0.00
211,166.35,0.66,-0.69,9.51,-1.10,2.69,0.24,1002.89,999.96,2.93,0.66,-0.69,-0.01,1003.01,0.01,89844.70,35.70,0,0.00,0.00,0.00,0.00
212,166.85,0.64,-0.66,9.52,7.08,2.93,-2.56,1003.00,999.96,3.05,0.64,-0.66,0.00,1002.94,-0.04,89843.45,35.70,0,0.00,0.00,0.00,0.00
213,167.35,0.63,-0.68,9.52,-0.49,3.78,-6.10,1002.95,999.96,2.99,0.63,-0.68,0.01,1002.91,-0.04,89844.05,35.71,0,0.00,0.00,0.00,0.00
214,167.86,0.67,-0.68,9.51,-0.98,6.96,3.91,1003.08,999.96,3.12,0.67,-0.68,-0.01,1002.98,0.02,89842.65,35.72,0,0.00,0.00,0.00,0.00
215,168.36,0.64,-0.66,9.52,1.22,-1.34,-13.18,1003.09,999.96,3.13,0.64,-0.66,0.01,1003.02,0.04,89842.51,35.73,0,0.00,0.00,0.00,0.00
216,168.87,0.65,-0.69,9.51,-5.74,-1.95,8.91,1002.92,999.96,2.96,0.65,-0.69,-0.00,1002.95,-0.01,89844.34,35.74,0,0.00,0.00,0.00,0.00
217,169.37,0.65,-0.68,9.51,0.12,-3.66,2.93,1003.01,999.96,3.05,0.65,-0.68,-0.00,1002.93,-0.01,89843.36,35.74,0,0.00,0.00,0.00,0.00
218,169.87,0.66,-0.66,9.52,-4.03,1.34,1.59,1002.94,999.96,2.99,0.66,-0.66,0.00,1002.97,0.01,89844.09,35.75,0,0.00,0.00,0.00,0.00
219,170.38,0.62,-0.64,9.52,2.69,3.91,3.91,1003.00,999.96,3.04,0.62,-0.64,0.00,1002.96,0.00,89843.45,35.76,0,0.00,0.00,0.00,0.00
220,170.88,0.67,-0.69,9.52,1.34,0.61,0.85,1003.06,999.96,3.10,0.67,-0.69,-0.00,1002.96,0.01,89842.87,35.77,0,0.00,0.00,0.00,0.00
221,171.39,0.68,-0.67,9.51,-1.71,-5.25,3.91,1003.05,999.96,3.09,0.68,-0.67,-0.01,1002.97,0.01,89842.96,35.78,0,0.00,0.00,0.00,0.00
222,171.89,0.63,-0.66,9.52,0.24,-0.37,-0.37,1002.97,999.96,3.01,0.63,-0.66,0.00,1002.94,-0.01,89843.84,35.78,0,0.00,0.00,0.00,0.00
223,172.39,0.64,-0.64,9.52,1.34,2.44,-3.17,1003.02,999.96,3.06,0.64,-0.64,0.00,1002.95,0.00,89843.29,35.79,0,0.00,0.00,0.00,0.00
224,172.90,0.68,-0.65,9.52,-0.73,3.17,0.49,1002.89,999.96,2.93,0.68,-0.65,0.01,1002.91,-0.02,89844.70,35.80,0,0.00,0.00,0.00,0.00
225,173.40,0.66,-0.68,9.51,-1.95,0.00,-6.71,1002.90,999.96,2.94,0.66,-0.68,-0.01,1002.87,-0.04,89844.55,35.81,0,0.00,0.00,0.00,0.00
226,173.91,0.65,-0.66,9.52,3.78,3.17,-2.81,1003.11,999.96,3.15,0.65,-0.66,0.00,1002.95,0.02,89842.31,35.81,0,0.00,0.00,0.00,0.00
227,174.41,0.66,-0.66,9.51,2.81,-4.15,4.52,1002.98,999.96,3.02,0.66,-0.66,-0.00,1002.96,0.02,89843.76,35.82,0,0.00,0.00,0.00,0.00
228,174.91,0.66,-0.63,9.51,-0.37,-0.24,-0.12,1003.05,999.96,3.09,0.66,-0.63,-0.00,1002.99,0.03,89842.98,35.82,0,0.00,0.00,0.00,0.00
229,175.42,0.64,-0.69,9.51,-1.22,3.54,2.44,1003.12,999.96,3.17,0.64,-0.69,-0.01,1003.04,0.06,89842.12,35.83,0,0.00,0.00,0.00,0.00
230,175.92,0.68,-0.65,9.51,-0.98,2.93,5.49,1003.07,999.96,3.11,0.68,-0.65,-0.01,1003.04,0.04,89842.78,35.84,0,0.00,0.00,0.00,0.00
231,176.43,0.62,-0.67,9.52,9.89,9.03,5.74,1003.04,999.96,3.08,0.62,-0.67,0.01,1003.04,0.03,89843.09,35.86,0,0.00,0.00,0.00,0.00
232,176.93,0.67,-0.68,9.50,-1.22,-1.10,-9.28,1003.02,999.96,3.06,0.67,-0.68,-0.01,1002.99,-0.01,89843.28,35.86,0,0.00,0.00,0.00,0.00
233,177.43,0.66,-0.70,9.51,3.30,2.69,-4.88,1003.06,999.96,3.10,0.66,-0.70,-0.00,1002.99,-0.00,89842.86,35.87,0,0.00,0.00,0.00,0.00
234,177.94,0.68,-0.65,9.51,3.30,0.00,6.35,1003.12,999.96,3.16,0.68,-0.65,-0.00,1003.03,0.03,89842.23,35.88,0,0.00,0.00,0.00,0.00
235,178.44,0.60,-0.65,9.53,-0.24,-0.37,-4.88,1003.31,999.96,3.35,0.60,-0.65,0.01,1003.10,0.07,89840.15,35.89,0,0.00,0.00,0.00,0.00
236,178.95,0.66,-0.67,9.52,2.32,4.15,0.73,1003.15,999.96,3.19,0.66,-0.67,0.00,1003.13,0.06,89841.84,35.90,0,0.00,0.00,0.00,0.00
237,179.45,0.66,-0.69,9.51,2.81,1.71,-1.22,1003.13,999.96,3.18,0.66,-0.69,-0.01,1003.12,0.04,89842.03,35.91,0,0.00,0.00,0.00,0.00
238,179.95,0.62,-0.64,9.52,-3.17,-2.08,0.24,1003.22,999.96,3.26,0.62,-0.64,0.00,1003.10,0.02,89841.06,35.91,0,0.00,0.00,0.00,0.00
239,180.46,0.67,-0.67,9.52,2.08,0.98,1.59,1003.30,999.96,3.34,0.67,-0.67,0.01,1003.08,0.00,89840.25,35.92,0,0.00,0.00,0.00,0.00
240,180.96,0.64,-0.67,9.52,4.15,1.10,-0.85,1003.33,999.96,3.37,0.64,-0.67,0.01,1003.12,0.02,89839.88,35.93,0,0.00,0.00,0.00,0.00
241,181.47,0.68,-0.66,9.52,2.08,-0.98,-4.52,1003.29,999.96,3.33,0.68,-0.66,0.01,1003.20,0.07,89840.30,35.93,0,0.00,0.00,0.00,0.00
242,181.97,0.65,-0.65,9.52,-0.49,-2.81,-8.42,1003.36,999.96,3.41,0.65,-0.65,0.01,1003.27,0.09,89839.52,35.94,0,0.00,0.00,0.00,0.00
243,182.47,0.63,-0.67,9.52,-4.64,0.73,-5.98,1003.22,999.96,3.27,0.63,-0.67,0.00,1003.19,0.02,89841.03,35.95,0,0.00,0.00,0.00,0.00
244,182.98,0.64,-0.69,9.51,0.00,-2.20,3.91,1003.12,999.96,3.16,0.64,-0.69,-0.01,1003.09,-0.04,89842.16,35.95,0,0.00,0.00,0.00,0.00
245,183.48,0.66,-0.69,9.52,0.85,-0.12,9.03,1003.37,999.96,3.41,0.66,-0.69,0.00,1003.12,0.00,89839.49,35.96,0,0.00,0.00,0.00,0.00
246,183.99,0.69,-0.68,9.52,-2.20,-1.46,0.00,1003.37,999.96,3.41,0.69,-0.68,0.00,1003.23,0.07,89839.42,35.97,0,0.00,0.00,0.00,0.00
247,184.49,0.65,-0.68,9.51,4.03,-1.46,-4.39,1003.20,999.96,3.24,0.65,-0.68,-0.00,1003.22,0.04,89841.33,35.98,0,0.00,0.00,0.00,0.00
248,184.99,0.65,-0.67,9.52,-4.27,-1.46,4.15,1003.23,999.96,3.27,0.65,-0.67,0.01,1003.18,0.00,89841.02,35.99,0,0.00,0.00,0.00,0.00
249,185.50,0.68,-0.69,9.51,9.28,10.13,-1.22,1003.20,999.96,3.24,0.68,-0.69,-0.00,1003.15,-0.02,89841.28,35.99,0,0.00,0.00,0.00,0.00
250,186.00,0.62,-0.65,9.52,-1.46,-0.24,-7.69,1003.23,999.96,3.28,0.62,-0.65,0.00,1003.14,-0.01,89840.92,36.00,0,0.00,0.00,0.00,0.00
251,186.51,0.65,-0.66,9.52,8.54,1.22,9.40,1003.24,999.96,3.29,0.65,-0.66,-0.00,1003.10,-0.03,89840.80,36.01,0,0.00,0.00,0.00,0.00
252,187.01,0.66,-0.69,9.51,-2.56,3.42,-1.59,1003.08,999.96,3.12,0.66,-0.69,-0.01,1003.05,-0.05,89842.63,36.01,0,0.00,0.00,0.00,0.00
253,187.51,0.66,-0.67,9.51,-1.83,-0.61,1.71,1003.17,999.96,3.21,0.66,-0.67,-0.00,1002.99,-0.07,89841.67,36.02,0,0.00,0.00,0.00,0.00
254,188.02,0.64,-0.67,9.52,5.62,0.98,6.59,1003.14,999.96,3.19,0.64,-0.67,0.00,1002.98,-0.06,89841.92,36.02,0,0.00,0.00,0.00,0.00
255,188.52,0.67,-0.68,9.51,3.30,4.39,4.39,1003.29,999.96,3.33,0.67,-0.68,-0.01,1003.04,0.00,89840.35,36.03,0,0.00,0.00,0.00,0.00
256,189.03,0.66,-0.65,9.52,-6.47,2.32,0.24,1003.03,999.96,3.07,0.66,-0.65,0.00,1003.03,-0.01,89843.13,36.04,0,0.00,0.00,0.00,0.00
257,189.53,0.65,-0.67,9.51,-1.22,-10.01,-5.13,1003.12,999.96,3.16,0.65,-0.67,-0.00,1003.00,-0.02,89842.18,36.04,0,0.00,0.00,0.00,0.00
258,190.03,0.67,-0.66,9.53,0.00,-2.81,2.56,1003.15,999.96,3.19,0.67,-0.66,0.01,1003.01,-0.01,89841.85,36.05,0,0.00,0.00,0.00,0.00
259,190.54,0.64,-0.65,9.53,-2.93,-5.98,-1.10,1003.13,999.96,3.17,0.64,-0.65,0.01,1003.01,-0.00,89842.07,36.05,0,0.00,0.00,0.00,0.00
260,191.04,0.66,-0.68,9.51,6.23,-0.85,-1.34,1003.05,999.96,3.09,0.66,-0.68,-0.01,1002.99,-0.02,89842.95,36.06,0,0.00,0.00,0.00,0.00
261,191.55,0.67,-0.69,9.52,-1.46,3.05,4.27,1003.08,999.96,3.12,0.67,-0.69,0.01,1002.96,-0.03,89842.63,36.07,0,0.00,0.00,0.00,0.00
262,192.05,0.65,-0.64,9.51,-2.20,2.56,1.10,1003.16,999.96,3.20,0.65,-0.64,-0.01,1002.96,-0.02,89841.77,36.07,0,0.00,0.00,0.00,0.00
263,192.55,0.68,-0.67,9.51,-5.13,-6.35,-4.52,1003.13,999.96,3.17,0.68,-0.67,-0.01,1003.04,0.04,89842.09,36.08,0,0.00,0.00,0.00,0.00
264,193.06,0.66,-0.67,9.51,1.83,-8.54,3.54,1003.14,999.96,3.18,0.66,-0.67,-0.01,1003.09,0.06,89841.93,36.09,0,0.00,0.00,0.00,0.00
265,193.56,0.65,-0.67,9.50,2.44,-3.78,-3.30,1003.20,999.96,3.24,0.65,-0.67,-0.02,1003.09,0.04,89841.30,36.09,0,0.00,0.00,0.00,0.00
266,194.07,0.66,-0.65,9.52,-5.74,-6.23,0.73,1003.27,999.96,3.31,0.66,-0.65,0.00,1003.16,0.07,89840.55,36.09,0,0.00,0.00,0.00,0.00
267,194.57,0.67,-0.67,9.52,-0.24,-7.93,-5.62,1003.24,999.96,3.28,0.67,-0.67,0.00,1003.16,0.05,89840.88,36.10,0,0.00,0.00,0.00,0.00
268,195.07,0.66,-0.66,9.53,0.98,-0.49,2.69,1003.18,999.96,3.22,0.66,-0.66,0.02,1003.08,-0.00,89841.54,36.11,0,0.00,0.00,0.00,0.00
269,195.58,0.63,-0.66,9.52,-3.30,-1.71,9.16,1003.04,999.96,3.08,0.63,-0.66,0.00,1003.00,-0.05,89843.06,36.12,0,0.00,0.00,0.00,0.00
270,196.08,0.66,-0.67,9.52,-0.73,-6.71,-2.93,1003.15,999.96,3.19,0.66,-0.67,0.01,1002.97,-0.05,89841.81,36.12,0,0.00,0.00,0.00,0.00
271,196.59,0.64,-0.64,9.52,1.83,-1.95,-7.93,1003.28,999.96,3.33,0.64,-0.64,0.00,1003.01,-0.00,89840.38,36.13,0,0.00,0.00,0.00,0.00
272,197.09,0.65,-0.68,9.52,-2.69,-6.59,-1.46,1003.16,999.96,3.21,0.65,-0.68,0.01,1003.01,-0.00,89841.70,36.13,0,0.00,0.00,0.00,0.00
273,197.59,0.64,-0.66,9.52,6.23,0.73,1.59,1003.09,999.96,3.13,0.64,-0.66,0.01,1002.96,-0.04,89842.53,36.14,0,0.00,0.00,0.00,0.00
274,198.10,0.67,-0.67,9.52,-3.30,-3.91,3.91,1003.17,999.96,3.21,0.67,-0.67,0.01,1003.00,0.00,89841.62,36.15,0,0.00,0.00,0.00,0.00
275,198.60,0.64,-0.66,9.51,4.88,4.39,-8.79,1003.05,999.96,3.09,0.64,-0.66,-0.01,1003.01,0.00,89842.93,36.16,0,0.00,0.00,0.00,0.00
276,199.11,0.65,-0.66,9.52,-0.73,1.34,-5.86,1003.24,999.96,3.29,0.65,-0.66,-0.00,1003.02,0.02,89840.80,36.17,0,0.00,0.00,0.00,0.00
277,199.61,0.66,-0.67,9.50,2.56,-0.98,0.49,1003.27,999.96,3.31,0.66,-0.67,-0.01,1003.08,0.05,89840.55,36.17,0,0.00,0.00,0.00,0.00
278,200.11,0.67,-0.68,9.51,0.37,1.22,6.47,1003.26,999.96,3.30,0.67,-0.68,-0.00,1003.10,0.04,89840.67,36.18,0,0.00,0.00,0.00,0.00
279,200.62,0.66,-0.68,9.51,2.08,2.56,-4.39,1003.37,999.96,3.41,0.66,-0.68,-0.00,1003.16,0.07,89839.45,36.19,0,0.00,0.00,0.00,0.00
280,201.12,0.65,-0.64,9.53,-3.42,1.95,-5.25,1003.50,999.96,3.55,0.65,-0.64,0.01,1003.23,0.09,89837.98,36.20,0,0.00,0.00,0.00,0.00
281,201.63,0.66,-0.68,9.51,-4.39,-8.06,-0.73,1003.37,999.96,3.42,0.66,-0.68,-0.01,1003.30,0.10,89839.40,36.20,0,0.00,0.00,0.00,0.00
282,202.13,0.65,-0.67,9.52,-4.15,0.61,-0.61,1003.49,999.96,3.53,0.65,-0.67,-0.00,1003.35,0.10,89838.14,36.21,0,0.00,0.00,0.00,0.00
283,202.63,0.66,-0.66,9.51,4.39,3.78,0.37,1003.54,999.96,3.58,0.66,-0.66,-0.00,1003.39,0.10,89837.59,36.22,0,0.00,0.00,0.00,0.00
284,203.14,0.66,-0.66,9.52,-5.74,3.54,2.93,1003.45,999.96,3.49,0.66,-0.66,0.00,1003.33,0.03,89838.55,36.22,0,0.00,0.00,0.00,0.00
285,203.64,0.67,-0.67,9.52,-1.95,1.10,2.08,1003.39,999.96,3.43,0.67,-0.67,0.00,1003.33,0.01,89839.20,36.22,0,0.00,0.00,0.00,0.00
286,204.15,0.66,-0.64,9.51,-2.32,-1.22,-6.84,1003.32,999.96,3.37,0.66,-0.64,-0.00,1003.32,0.00,89839.96,36.23,0,0.00,0.00,0.00,0.00
287,204.65,0.66,-0.67,9.52,3.54,-1.46,-2.81,1003.18,999.96,3.23,0.66,-0.67,0.01,1003.21,-0.06,89841.47,36.24,0,0.00,0.00,0.00,0.00
288,205.15,0.66,-0.66,9.52,-1.34,-0.49,-3.42,1003.35,999.96,3.39,0.66,-0.66,-0.00,1003.19,-0.05,89839.70,36.25,0,0.00,0.00,0.00,0.00
289,205.66,0.67,-0.66,9.52,-1.59,1.95,-0.61,1003.54,999.96,3.58,0.67,-0.66,0.00,1003.28,0.02,89837.58,36.25,0,0.00,0.00,0.00,0.00
290,206.16,0.64,-0.66,9.51,0.12,-5.98,5.49,1003.60,999.96,3.64,0.64,-0.66,-0.00,1003.40,0.07,89836.99,36.26,0,0.00,0.00,0.00,0.00
291,206.67,0.67,-0.67,9.51,3.78,-3.54,3.78,1003.41,999.96,3.45,0.67,-0.67,-0.00,1003.41,0.05,89839.00,36.27,0,0.00,0.00,0.00,0.00
292,207.17,0.67,-0.66,9.51,-4.27,-0.49,3.05,1003.42,999.96,3.46,0.67,-0.66,-0.00,1003.38,0.02,89838.91,36.28,0,0.00,0.00,0.00,0.00
293,207.67,0.65,-0.66,9.52,-2.20,-1.22,1.10,1003.50,999.96,3.55,0.65,-0.66,0.00,1003.43,0.04,89837.99,36.29,0,0.00,0.00,0.00,0.00
294,208.18,0.66,-0.67,9.53,-0.49,0.73,4.88,1003.44,999.96,3.49,0.66,-0.67,0.01,1003.43,0.03,89838.66,36.29,0,0.00,0.00,0.00,0.00
295,208.68,0.69,-0.68,9.51,-6.47,5.13,-2.81,1003.65,999.96,3.69,0.69,-0.68,-0.01,1003.52,0.08,89836.45,36.29,0,0.00,0.00,0.00,0.00
296,209.19,0.67,-0.66,9.51,-2.44,-7.69,-10.99,1003.42,999.96,3.47,0.67,-0.66,-0.00,1003.49,0.03,89838.86,36.30,0,0.00,0.00,0.00,0.00
297,209.69,0.66,-0.65,9.52,3.05,1.95,8.06,1003.39,999.96,3.43,0.66,-0.65,0.00,1003.36,-0.05,89839.19,36.30,0,0.00,0.00,0.00,0.00
298,210.19,0.65,-0.67,9.50,-0.61,-2.56,0.49,1003.54,999.96,3.58,0.65,-0.67,-0.02,1003.39,-0.02,89837.59,36.31,0,0.00,0.00,0.00,0.00
299,210.70,0.67,-0.66,9.52,-3.42,1.59,2.69,1003.53,999.96,3.57,0.67,-0.66,0.01,1003.40,-0.00,89837.75,36.32,0,0.00,0.00,0.00,0.00
300,211.20,0.65,-0.66,9.51,-4.39,-2.20,-3.54,1003.54,999.96,3.58,0.65,-0.66,-0.01,1003.39,-0.01,89837.66,36.33,0,0.00,0.00,0.00,0.00
301,211.71,0.65,-0.66,9.51,5.62,1.46,0.49,1003.45,999.96,3.49,0.65,-0.66,-0.01,1003.40,0.00,89838.55,36.34,0,0.00,0.00,0.00,0.00
302,212.21,0.67,-0.67,9.52,-3.78,-2.20,0.73,1003.65,999.96,3.69,0.67,-0.67,0.01,1003.47,0.04,89836.43,36.34,0,0.00,0.00,0.00,0.00
303,212.71,0.65,-0.68,9.52,-1.46,-8.54,0.00,1003.58,999.96,3.62,0.65,-0.68,0.01,1003.53,0.06,89837.20,36.35,0,0.00,0.00,0.00,0.00
304,213.22,0.64,-0.66,9.51,-2.08,2.08,-3.78,1003.46,999.96,3.50,0.64,-0.66,-0.00,1003.47,0.00,89838.45,36.36,0,0.00,0.00,0.00,0.00
305,213.72,0.66,-0.67,9.50,2.81,4.39,6.71,1003.56,999.96,3.60,0.66,-0.67,-0.01,1003.44,-0.01,89837.42,36.36,0,0.00,0.00,0.00,0.00
306,214.23,0.65,-0.64,9.51,1.34,-3.17,6.47,1003.43,999.96,3.47,0.65,-0.64,-0.01,1003.39,-0.04,89838.76,36.36,0,0.00,0.00,0.00,0.00
307,214.73,0.67,-0.66,9.52,3.66,5.25,-5.00,1003.54,999.96,3.58,0.67,-0.66,0.01,1003.41,-0.01,89837.60,36.37,0,0.00,0.00,0.00,0.00
308,215.23,0.66,-0.67,9.51,2.81,-2.93,0.61,1003.49,999.96,3.54,0.66,-0.67,-0.01,1003.43,-0.00,89838.11,36.38,0,0.00,0.00,0.00,0.00
309,215.74,0.69,-0.70,9.51,4.88,5.00,4.39,1003.37,999.96,3.42,0.69,-0.70,-0.01,1003.35,-0.05,89839.41,36.39,0,0.00,0.00,0.00,0.00
310,216.24,0.64,-0.65,9.51,0.98,5.00,3.30,1003.50,999.96,3.54,0.64,-0.65,-0.00,1003.37,-0.02,89838.02,36.39,0,0.00,0.00,0.00,0.00
311,216.75,0.67,-0.68,9.51,1.22,0.24,1.46,1003.49,999.96,3.53,0.67,-0.68,-0.01,1003.40,0.01,89838.16,36.39,0,0.00,0.00,0.00,0.00
312,217.25,0.67,-0.66,9.53,2.08,-0.49,6.35,1003.38,999.96,3.42,0.67,-0.66,0.01,1003.34,-0.03,89839.32,36.40,0,0.00,0.00,0.00,0.00
313,217.75,0.66,-0.68,9.51,0.98,2.32,3.30,1003.29,999.96,3.33,0.66,-0.68,-0.01,1003.29,-0.05,89840.34,36.40,0,0.00,0.00,0.00,0.00
314,218.26,0.63,-0.65,9.52,-0.73,-0.61,3.30,1003.37,999.96,3.41,0.63,-0.65,0.00,1003.29,-0.03,89839.45,36.41,0,0.00,0.00,0.00,0.00
315,218.76,0.66,-0.68,9.52,5.62,5.49,1.59,1003.44,999.96,3.48,0.66,-0.68,0.01,1003.30,-0.01,89838.72,36.42,0,0.00,0.00,0.00,0.00
316,219.27,0.67,-0.67,9.52,-2.56,-0.12,-7.81,1003.52,999.96,3.56,0.67,-0.67,-0.00,1003.37,0.03,89837.80,36.43,0,0.00,0.00,0.00,0.00
317,219.77,0.68,-0.68,9.52,0.98,2.93,0.73,1003.45,999.96,3.50,0.68,-0.68,0.01,1003.43,0.06,89838.54,36.44,0,0.00,0.00,0.00,0.00
318,220.27,0.65,-0.66,9.52,5.62,0.61,-0.85,1003.44,999.96,3.49,0.65,-0.66,0.01,1003.41,0.03,89838.66,36.45,0,0.00,0.00,0.00,0.00
319,220.78,0.64,-0.66,9.51,-2.93,-2.81,1.10,1003.38,999.96,3.42,0.64,-0.66,-0.00,1003.36,-0.01,89839.32,36.45,0,0.00,0.00,0.00,0.00
320,221.28,0.64,-0.68,9.51,2.08,-2.20,4.27,1003.48,999.96,3.52,0.64,-0.68,-0.00,1003.31,-0.03,89838.29,36.45,0,0.00,0.00,0.00,0.00
321,221.79,0.67,-0.71,9.50,-4.64,-1.34,-3.42,1003.39,999.96,3.43,0.67,-0.71,-0.02,1003.32,-0.01,89839.19,36.46,0,0.00,0.00,0.00,0.00
322,222.29,0.68,-0.63,9.52,2.93,4.52,4.52,1003.40,999.96,3.45,0.68,-0.63,0.00,1003.27,-0.04,89839.08,36.46,0,0.00,0.00,0.00,0.00
323,222.79,0.66,-0.66,9.53,-2.44,-4.39,-5.13,1003.43,999.96,3.47,0.66,-0.66,0.01,1003.29,-0.01,89838.79,36.47,0,0.00,0.00,0.00,0.00
324,223.30,0.66,-0.68,9.52,3.78,5.49,6.47,1003.36,999.96,3.41,0.66,-0.68,0.00,1003.28,-0.02,89839.52,36.48,0,0.00,0.00,0.00,0.00
325,223.80,0.66,-0.65,9.51,10.86,7.20,-2.20,1003.48,999.96,3.52,0.66,-0.65,-0.01,1003.33,0.02,89838.23,36.48,0,0.00,0.00,0.00,0.00
326,224.31,0.66,-0.66,9.52,5.25,-1.22,-6.96,1003.39,999.96,3.43,0.66,-0.66,0.01,1003.34,0.02,89839.25,36.49,0,0.00,0.00,0.00,0.00
327,224.81,0.65,-0.66,9.51,2.20,-0.61,6.71,1003.54,999.96,3.58,0.65,-0.66,-0.00,1003.39,0.04,89837.63,36.50,0,0.00,0.00,0.00,0.00
328,225.31,0.68,-0.68,9.52,-2.08,5.74,4.27,1003.54,999.96,3.58,0.68,-0.68,0.00,1003.44,0.06,89837.65,36.50,0,0.00,0.00,0.00,0.00
329,225.82,0.66,-0.66,9.52,-7.81,-1.83,-7.08,1003.46,999.96,3.50,0.66,-0.66,0.01,1003.39,0.01,89838.48,36.51,0,0.00,0.00,0.00,0.00
330,226.32,0.65,-0.68,9.52,-1.83,5.37,-0.85,1003.61,999.96,3.66,0.65,-0.68,0.00,1003.48,0.07,89836.77,36.51,0,0.00,0.00,0.00,0.00
331,226.83,0.66,-0.68,9.51,5.86,2.69,6.84,1003.57,999.96,3.61,0.66,-0.68,-0.00,1003.50,0.06,89837.27,36.51,0,0.00,0.00,0.00,0.00
332,227.33,0.65,-0.66,9.52,1.34,-5.62,3.78,1003.49,999.96,3.53,0.65,-0.66,0.00,1003.47,0.02,89838.18,36.52,0,0.00,0.00,0.00,0.00
333,227.83,0.65,-0.67,9.52,0.00,-2.69,3.54,1003.59,999.96,3.63,0.65,-0.67,0.00,1003.44,0.00,89837.07,36.53,0,0.00,0.00,0.00,0.00
334,228.34,0.67,-0.65,9.52,-0.98,-2.93,-2.56,1003.48,999.96,3.52,0.67,-0.65,0.01,1003.43,-0.00,89838.24,36.53,0,0.00,0.00,0.00,0.00
335,228.84,0.67,-0.66,9.51,-0.24,3.30,-5.74,1003.61,999.96,3.65,0.67,-0.66,-0.00,1003.44,0.00,89836.88,36.54,0,0.00,0.00,0.00,0.00
336,229.35,0.65,-0.66,9.50,0.00,-0.85,1.83,1003.55,999.96,3.59,0.65,-0.66,-0.01,1003.47,0.02,89837.54,36.54,0,0.00,0.00,0.00,0.00
337,229.85,0.66,-0.66,9.52,0.61,-2.32,2.93,1003.55,999.96,3.59,0.66,-0.66,0.01,1003.43,-0.01,89837.52,36.54,0,0.00,0.00,0.00,0.00
338,230.35,0.65,-0.66,9.51,-4.15,1.83,1.59,1003.64,999.96,3.68,0.65,-0.66,-0.00,1003.54,0.06,89836.52,36.55,0,0.00,0.00,0.00,0.00
339,230.86,0.66,-0.67,9.51,4.27,0.37,-0.37,1003.58,999.96,3.62,0.66,-0.67,-0.01,1003.55,0.05,89837.18,36.55,0,0.00,0.00,0.00,0.00
340,231.36,0.65,-0.65,9.52,-3.78,-4.52,-1.71,1003.45,999.96,3.49,0.65,-0.65,0.01,1003.52,0.01,89838.58,36.55,0,0.00,0.00,0.00,0.00
341,231.87,0.66,-0.67,9.52,1.95,-7.32,3.78,1003.67,999.96,3.71,0.66,-0.67,0.01,1003.52,0.01,89836.23,36.56,0,0.00,0.00,0.00,0.00
342,232.37,0.63,-0.66,9.51,4.15,-1.71,0.12,1003.68,999.96,3.72,0.63,-0.66,-0.00,1003.55,0.02,89836.12,36.56,0,0.00,0.00,0.00,0.00
343,232.87,0.66,-0.66,9.50,6.10,0.61,1.71,1003.71,999.96,3.75,0.66,-0.66,-0.02,1003.63,0.06,89835.72,36.56,0,0.00,0.00,0.00,0.00
344,233.38,0.65,-0.68,9.50,-1.83,-2.81,1.59,1003.79,999.96,3.83,0.65,-0.68,-0.01,1003.64,0.06,89834.90,36.57,0,0.00,0.00,0.00,0.00
345,233.88,0.65,-0.65,9.52,2.08,0.24,-4.52,1003.70,999.96,3.75,0.65,-0.65,0.01,1003.64,0.03,89835.80,36.58,0,0.00,0.00,0.00,0.00
346,234.39,0.64,-0.66,9.52,1.59,0.00,1.59,1003.77,999.96,3.81,0.64,-0.66,0.00,1003.68,0.05,89835.14,36.59,0,0.00,0.00,0.00,0.00
347,234.89,0.67,-0.68,9.51,3.54,6.59,0.37,1003.79,999.96,3.83,0.67,-0.68,-0.00,1003.72,0.06,89834.92,36.59,0,0.00,0.00,0.00,0.00
348,235.39,0.66,-0.67,9.53,-1.10,1.34,5.49,1003.67,999.96,3.71,0.66,-0.67,0.01,1003.71,0.04,89836.24,36.59,0,0.00,0.00,0.00,0.00
349,235.90,0.65,-0.68,9.52,3.42,-0.12,2.56,1003.85,999.96,3.89,0.65,-0.68,0.01,1003.68,0.02,89834.18,36.59,0,0.00,0.00,0.00,0.00
350,236.40,0.66,-0.67,9.50,-4.76,-2.44,-1.59,1003.61,999.96,3.65,0.66,-0.67,-0.01,1003.66,-0.00,89836.84,36.60,0,0.00,0.00,0.00,0.00
351,236.91,0.66,-0.66,9.52,0.12,4.15,2.44,1003.95,999.96,4.00,0.66,-0.66,0.01,1003.75,0.06,89833.10,36.60,0,0.00,0.00,0.00,0.00
352,237.41,0.65,-0.66,9.51,3.17,2.20,-3.91,1003.73,999.96,3.78,0.65,-0.66,-0.00,1003.74,0.03,89835.48,36.61,0,0.00,0.00,0.00,0.00
353,237.91,0.65,-0.65,9.51,0.98,0.49,-2.81,1003.89,999.96,3.93,0.65,-0.65,-0.00,1003.75,0.03,89833.79,36.61,0,0.00,0.00,0.00,0.00
354,238.42,0.66,-0.67,9.50,0.98,0.00,0.61,1003.81,999.96,3.85,0.66,-0.67,-0.01,1003.72,0.00,89834.70,36.62,0,0.00,0.00,0.00,0.00
355,238.92,0.66,-0.67,9.52,3.91,-2.93,6.47,1003.74,999.96,3.78,0.66,-0.67,0.01,1003.75,0.03,89835.43,36.62,0,0.00,0.00,0.00,0.00
356,239.43,0.67,-0.69,9.51,0.24,0.73,5.86,1003.71,999.96,3.75,0.67,-0.69,-0.01,1003.69,-0.01,89835.72,36.63,0,0.00,0.00,0.00,0.00
357,239.93,0.66,-0.66,9.51,-1.10,0.24,-2.93,1003.70,999.96,3.74,0.66,-0.66,-0.01,1003.70,-0.01,89835.88,36.63,0,0.00,0.00,0.00,0.00
358,240.43,0.65,-0.66,9.52,-5.74,2.81,0.49,1003.79,999.96,3.83,0.65,-0.66,0.01,1003.68,-0.01,89834.87,36.63,0,0.00,0.00,0.00,0.00
359,240.94,0.66,-0.68,9.50,5.62,1.71,4.39,1003.77,999.96,3.81,0.66,-0.68,-0.02,1003.70,0.01,89835.07,36.64,0,0.00,0.00,0.00,0.00
360,241.44,0.66,-0.65,9.51,-0.37,-1.59,-12.21,1003.69,999.96,3.73,0.66,-0.65,-0.00,1003.64,-0.03,89835.98,36.65,0,0.00,0.00,0.00,0.00
361,241.95,0.67,-0.66,9.52,1.46,-3.05,2.20,1003.72,999.96,3.76,0.67,-0.66,0.00,1003.62,-0.04,89835.65,36.66,0,0.00,0.00,0.00,0.00
362,242.45,0.67,-0.68,9.52,8.79,-1.10,-2.20,1003.68,999.96,3.72,0.67,-0.68,0.00,1003.60,-0.03,89836.13,36.67,0,0.00,0.00,0.00,0.00
363,242.95,0.66,-0.66,9.50,0.98,-3.54,-2.32,1003.64,999.96,3.68,0.66,-0.66,-0.01,1003.58,-0.04,89836.54,36.68,0,0.00,0.00,0.00,0.00
364,243.46,0.66,-0.66,9.52,1.59,0.85,-5.86,1003.70,999.96,3.74,0.66,-0.66,0.01,1003.60,-0.01,89835.89,36.68,0,0.00,0.00,0.00,0.00
365,243.96,0.63,-0.64,9.53,-0.12,3.17,4.27,1003.68,999.96,3.72,0.63,-0.64,0.01,1003.59,-0.01,89836.07,36.69,0,0.00,0.00,0.00,0.00
366,244.47,0.67,-0.67,9.51,-12.08,-5.86,-4.15,1003.83,999.96,3.88,0.67,-0.67,-0.00,1003.63,0.02,89834.39,36.70,0,0.00,0.00,0.00,0.00
367,244.97,0.64,-0.67,9.52,-5.74,-0.98,0.24,1003.66,999.96,3.70,0.64,-0.67,0.00,1003.62,0.01,89836.26,36.71,0,0.00,0.00,0.00,0.00
368,245.47,0.66,-0.68,9.51,1.59,4.52,6.47,1003.73,999.96,3.77,0.66,-0.68,-0.01,1003.69,0.05,89835.52,36.71,0,0.00,0.00,0.00,0.00
369,245.98,0.65,-0.65,9.51,6.35,-5.86,-3.42,1003.91,999.96,3.95,0.65,-0.65,-0.01,1003.73,0.06,89833.60,36.71,0,0.00,0.00,0.00,0.00
370,246.48,0.67,-0.68,9.52,2.93,0.49,0.24,1003.84,999.96,3.89,0.67,-0.68,0.00,1003.77,0.07,89834.27,36.72,0,0.00,0.00,0.00,0.00
371,246.99,0.65,-0.64,9.52,3.54,8.30,-0.85,1003.67,999.96,3.72,0.65,-0.64,0.00,1003.70,-0.00,89836.16,36.73,0,0.00,0.00,0.00,0.00
372,247.49,0.64,-0.66,9.51,-4.15,0.24,7.81,1003.89,999.96,3.94,0.64,-0.66,-0.01,1003.72,0.01,89833.74,36.73,0,0.00,0.00,0.00,0.00
373,247.99,0.66,-0.66,9.51,2.08,-2.69,-1.34,1003.65,999.96,3.70,0.66,-0.66,-0.00,1003.67,-0.03,89836.35,36.74,0,0.00,0.00,0.00,0.00
374,248.50,0.66,-0.66,9.51,-2.20,0.85,-5.25,1003.65,999.96,3.70,0.66,-0.66,-0.00,1003.64,-0.04,89836.34,36.75,0,0.00,0.00,0.00,0.00
375,249.00,0.65,-0.68,9.52,-3.30,-5.98,0.00,1003.79,999.96,3.83,0.65,-0.68,0.00,1003.67,-0.01,89834.90,36.75,0,0.00,0.00,0.00,0.00
376,249.51,0.64,-0.67,9.51,3.78,-0.85,-0.85,1003.86,999.96,3.90,0.64,-0.67,-0.01,1003.70,0.02,89834.16,36.76,0,0.00,0.00,0.00,0.00
377,250.01,0.63,-0.66,9.52,0.98,-0.85,-4.52,1003.99,999.96,4.03,0.63,-0.66,0.00,1003.79,0.07,89832.67,36.77,0,0.00,0.00,0.00,0.00
378,250.51,0.68,-0.69,9.51,-1.71,0.00,-9.64,1003.73,999.96,3.77,0.68,-0.69,-0.00,1003.75,0.03,89835.55,36.78,0,0.00,0.00,0.00,0.00
379,251.02,0.62,-0.64,9.53,-4.88,-2.93,-3.42,1003.74,999.96,3.78,0.62,-0.64,0.01,1003.70,-0.01,89835.47,36.78,0,0.00,0.00,0.00,0.00
380,251.52,0.66,-0.67,9.52,1.83,-6.84,-3.30,1003.71,999.96,3.75,0.66,-0.67,0.01,1003.68,-0.01,89835.75,36.79,0,0.00,0.00,0.00,0.00
381,252.03,0.67,-0.67,9.51,0.61,3.30,5.37,1003.78,999.96,3.83,0.67,-0.67,-0.01,1003.69,-0.00,89834.93,36.80,0,0.00,0.00,0.00,0.00
382,252.53,0.67,-0.65,9.52,-4.27,-5.25,-2.08,1003.69,999.96,3.73,0.67,-0.65,0.00,1003.65,-0.03,89836.01,36.81,0,0.00,0.00,0.00,0.00
383,253.03,0.66,-0.65,9.52,-0.49,2.93,-1.46,1003.84,999.96,3.88,0.66,-0.65,0.00,1003.71,0.02,89834.30,36.81,0,0.00,0.00,0.00,0.00
384,253.54,0.66,-0.68,9.52,2.56,-0.85,9.52,1003.77,999.96,3.81,0.66,-0.68,0.00,1003.73,0.03,89835.14,36.81,0,0.00,0.00,0.00,0.00
385,254.04,0.66,-0.66,9.52,-2.81,-5.62,-3.17,1003.82,999.96,3.86,0.66,-0.66,0.01,1003.74,0.03,89834.52,36.82,0,0.00,0.00,0.00,0.00
386,254.55,0.64,-0.66,9.50,8.79,-0.85,-2.56,1003.81,999.96,3.85,0.64,-0.66,-0.02,1003.74,0.02,89834.72,36.83,0,0.00,0.00,0.00,0.00
387,255.05,0.66,-0.67,9.51,6.35,-1.46,-1.34,1003.92,999.96,3.96,0.66,-0.67,-0.01,1003.76,0.03,89833.48,36.83,0,0.00,0.00,0.00,0.00
388,255.55,0.67,-0.67,9.50,-4.27,-6.71,-3.05,1003.79,999.96,3.83,0.67,-0.67,-0.01,1003.75,0.01,89834.88,36.84,0,0.00,0.00,0.00,0.00
389,256.06,0.66,-0.67,9.51,0.85,-0.24,4.88,1003.79,999.96,3.84,0.66,-0.67,-0.01,1003.73,0.00,89834.82,36.85,0,0.00,0.00,0.00,0.00
390,256.56,0.66,-0.66,9.51,-0.61,1.95,-2.20,1003.85,999.96,3.89,0.66,-0.66,-0.00,1003.78,0.03,89834.23,36.85,0,0.00,0.00,0.00,0.00
391,257.07,0.68,-0.68,9.51,4.27,3.17,5.00,1003.89,999.96,3.93,0.68,-0.68,-0.01,1003.76,0.01,89833.82,36.86,0,0.00,0.00,0.00,0.00
392,257.57,0.66,-0.66,9.51,2.32,-0.12,-4.15,1003.75,999.96,3.79,0.66,-0.66,-0.00,1003.74,-0.01,89835.31,36.86,0,0.00,0.00,0.00,0.00
393,258.07,0.64,-0.65,9.51,-4.52,2.20,-4.64,1003.73,999.96,3.78,0.64,-0.65,-0.00,1003.72,-0.02,89835.48,36.87,0,0.00,0.00,0.00,0.00
394,258.58,0.67,-0.68,9.50,-3.66,-7.20,-1.34,1003.82,999.96,3.86,0.67,-0.68,-0.01,1003.68,-0.03,89834.56,36.88,0,0.00,0.00,0.00,0.00
395,259.08,0.67,-0.66,9.51,0.49,-1.71,-2.81,1003.81,999.96,3.85,0.67,-0.66,-0.00,1003.75,0.03,89834.64,36.88,0,0.00,0.00,0.00,0.00
396,259.59,0.67,-0.68,9.52,0.98,0.00,-4.03,1003.74,999.96,3.79,0.67,-0.68,0.00,1003.70,-0.01,89835.38,36.89,0,0.00,0.00,0.00,0.00
397,260.09,0.64,-0.65,9.51,2.69,4.52,-1.22,1003.91,999.96,3.95,0.64,-0.65,-0.00,1003.78,0.04,89833.56,36.90,0,0.00,0.00,0.00,0.00
398,260.59,0.66,-0.68,9.52,-4.03,-2.69,2.08,1003.78,999.96,3.83,0.66,-0.68,0.01,1003.76,0.01,89834.94,36.90,0,0.00,0.00,0.00,0.00
399,261.10,0.65,-0.67,9.51,2.56,-1.22,7.81,1003.97,999.96,4.01,0.65,-0.67,-0.01,1003.79,0.03,89832.93,36.91,0,0.00,0.00,0.00,0.00
400,261.60,0.65,-0.66,9.52,-0.85,-3.30,1.71,1003.84,999.96,3.88,0.65,-0.66,0.01,1003.79,0.02,89834.31,36.91,0,0.00,0.00,0.00,0.00
401,262.11,0.66,-0.68,9.52,2.32,-5.13,6.84,1003.82,999.96,3.87,0.66,-0.68,0.01,1003.80,0.03,89834.50,36.92,0,0.00,0.00,0.00,0.00
402,262.61,0.66,-0.66,9.51,5.00,4.15,-0.61,1003.83,999.96,3.87,0.66,-0.66,-0.01,1003.77,0.01,89834.41,36.93,0,0.00,0.00,0.00,0.00
403,263.11,0.64,-0.69,9.52,1.83,-2.69,-1.71,1003.89,999.96,3.93,0.64,-0.69,0.01,1003.81,0.02,89833.77,36.94,0,0.00,0.00,0.00,0.00
404,263.62,0.64,-0.67,9.51,1.34,7.81,-6.84,1003.95,999.96,3.99,0.64,-0.67,-0.01,1003.81,0.02,89833.12,36.94,0,0.00,0.00,0.00,0.00
405,264.12,0.66,-0.65,9.52,6.35,3.05,-1.71,1003.95,999.96,3.99,0.66,-0.65,0.00,1003.86,0.04,89833.20,36.94,0,0.00,0.00,0.00,0.00
406,264.63,0.66,-0.68,9.51,7.08,0.37,2.20,1003.89,999.96,3.93,0.66,-0.68,-0.00,1003.83,0.01,89833.80,36.95,0,0.00,0.00,0.00,0.00
407,265.13,0.65,-0.66,9.51,3.54,-7.20,0.49,1003.87,999.96,3.91,0.65,-0.66,-0.00,1003.78,-0.02,89834.05,36.95,0,0.00,0.00,0.00,0.00
408,265.63,0.65,-0.67,9.51,7.08,-3.42,-6.84,1003.96,999.96,4.00,0.65,-0.67,-0.00,1003.82,0.01,89833.05,36.96,0,0.00,0.00,0.00,0.00
409,266.14,0.65,-0.68,9.52,6.23,3.66,4.03,1003.83,999.96,3.87,0.65,-0.68,0.00,1003.80,-0.00,89834.41,36.96,0,0.00,0.00,0.00,0.00
410,266.64,0.66,-0.66,9.51,-0.73,-2.69,-2.81,1003.98,999.96,4.02,0.66,-0.66,-0.00,1003.80,0.01,89832.84,36.97,0,0.00,0.00,0.00,0.00
411,267.15,0.64,-0.68,9.52,0.98,4.15,0.85,1003.94,999.96,3.98,0.64,-0.68,0.00,1003.84,0.03,89833.21,36.98,0,0.00,0.00,0.00,0.00
412,267.65,0.66,-0.67,9.52,0.85,-4.03,2.20,1003.75,999.96,3.79,0.66,-0.67,0.00,1003.81,0.00,89835.30,36.98,0,0.00,0.00,0.00,0.00
413,268.15,0.64,-0.63,9.53,-1.34,5.37,3.66,1003.84,999.96,3.88,0.64,-0.63,0.01,1003.75,-0.02,89834.31,36.99,0,0.00,0.00,0.00,0.00
414,268.66,0.68,-0.67,9.52,0.24,-2.81,9.77,1003.77,999.96,3.81,0.68,-0.67,-0.00,1003.73,-0.03,89835.09,37.00,0,0.00,0.00,0.00,0.00
415,269.16,0.67,-0.64,9.52,-4.03,-1.22,2.20,1003.84,999.96,3.88,0.67,-0.64,0.01,1003.71,-0.03,89834.34,37.00,0,0.00,0.00,0.00,0.00
416,269.67,0.66,-0.65,9.52,-4.64,-2.69,-1.46,1003.86,999.96,3.90,0.66,-0.65,0.00,1003.78,0.03,89834.10,37.01,0,0.00,0.00,0.00,0.00
417,270.17,0.65,-0.68,9.52,-4.64,0.12,-5.13,1003.79,999.96,3.83,0.65,-0.68,0.01,1003.73,-0.01,89834.85,37.01,0,0.00,0.00,0.00,0.00
418,270.67,0.64,-0.69,9.52,-2.93,-1.46,-5.49,1003.95,999.96,3.99,0.64,-0.69,0.00,1003.76,0.01,89833.18,37.02,0,0.00,0.00,0.00,0.00
419,271.18,0.64,-0.64,9.52,-1.22,3.42,-0.73,1003.69,999.96,3.73,0.64,-0.64,0.00,1003.71,-0.02,89835.98,37.02,0,0.00,0.00,0.00,0.00
420,271.68,0.65,-0.67,9.52,0.00,5.25,5.37,1003.85,999.96,3.89,0.65,-0.67,-0.00,1003.68,-0.02,89834.23,37.03,0,0.00,0.00,0.00,0.00
421,272.19,0.65,-0.65,9.51,-6.35,0.49,1.95,1003.94,999.96,3.98,0.65,-0.65,-0.00,1003.75,0.03,89833.25,37.03,0,0.00,0.00,0.00,0.00
422,272.69,0.64,-0.66,9.52,-7.08,1.71,-2.20,1004.06,999.96,4.10,0.64,-0.66,0.00,1003.81,0.06,89831.91,37.04,0,0.00,0.00,0.00,0.00
423,273.19,0.67,-0.66,9.52,0.00,-0.98,-5.13,1003.87,999.96,3.91,0.67,-0.66,0.00,1003.85,0.07,89834.03,37.04,0,0.00,0.00,0.00,0.00
424,273.70,0.66,-0.66,9.52,-8.42,3.54,-4.52,1003.92,999.96,3.96,0.66,-0.66,0.00,1003.86,0.05,89833.47,37.05,0,0.00,0.00,0.00,0.00
425,274.20,0.66,-0.63,9.51,3.54,7.57,-1.71,1003.98,999.96,4.02,0.66,-0.63,-0.00,1003.82,0.02,89832.82,37.05,0,0.00,0.00,0.00,0.00
426,274.71,0.64,-0.66,9.53,-0.37,0.37,-5.62,1003.94,999.96,3.98,0.64,-0.66,0.01,1003.79,-0.00,89833.21,37.06,0,0.00,0.00,0.00,0.00
427,275.21,0.64,-0.67,9.52,-3.66,-0.98,-6.47,1003.97,999.96,4.01,0.64,-0.67,0.01,1003.83,0.03,89832.90,37.06,0,0.00,0.00,0.00,0.00
428,275.71,0.65,-0.66,9.53,-4.27,1.22,2.20,1003.95,999.96,3.99,0.65,-0.66,0.01,1003.83,0.02,89833.16,37.07,0,0.00,0.00,0.00,0.00
429,276.22,0.65,-0.65,9.52,3.30,3.66,3.91,1003.99,999.96,4.03,0.65,-0.65,0.00,1003.83,0.01,89832.70,37.08,0,0.00,0.00,0.00,0.00
430,276.72,0.66,-0.67,9.52,0.61,0.37,2.44,1003.90,999.96,3.94,0.66,-0.67,0.01,1003.81,-0.01,89833.71,37.08,0,0.00,0.00,0.00,0.00
431,277.23,0.66,-0.67,9.52,2.44,6.35,10.01,1003.90,999.96,3.94,0.66,-0.67,0.00,1003.80,-0.01,89833.69,37.09,0,0.00,0.00,0.00,0.00
432,277.73,0.64,-0.65,9.53,0.12,2.44,-3.54,1004.01,999.96,4.06,0.64,-0.65,0.01,1003.84,0.02,89832.42,37.09,0,0.00,0.00,0.00,0.00
433,278.23,0.67,-0.68,9.50,-2.56,4.39,4.15,1004.00,999.96,4.04,0.67,-0.68,-0.01,1003.85,0.02,89832.60,37.10,0,0.00,0.00,0.00,0.00
434,278.74,0.65,-0.66,9.52,7.32,4.15,-5.13,1003.89,999.96,3.93,0.65,-0.66,0.00,1003.80,-0.02,89833.83,37.10,0,0.00,0.00,0.00,0.00
435,279.24,0.64,-0.66,9.52,1.83,1.59,4.64,1003.86,999.96,3.90,0.64,-0.66,0.00,1003.78,-0.03,89834.11,37.10,0,0.00,0.00,0.00,0.00
436,279.75,0.67,-0.70,9.51,-2.20,-0.12,-1.46,1003.87,999.96,3.92,0.67,-0.70,-0.00,1003.76,-0.03,89833.98,37.11,0,0.00,0.00,0.00,0.00
437,280.25,0.65,-0.67,9.52,-6.59,-1.59,1.95,1004.00,999.96,4.04,0.65,-0.67,0.00,1003.80,0.01,89832.62,37.11,0,0.00,0.00,0.00,0.00
438,280.75,0.66,-0.67,9.51,6.84,3.91,6.84,1003.80,999.96,3.84,0.66,-0.67,-0.01,1003.80,0.00,89834.73,37.12,0,0.00,0.00,0.00,0.00
439,281.26,0.66,-0.66,9.51,0.00,2.08,-3.05,1003.86,999.96,3.90,0.66,-0.66,-0.00,1003.75,-0.03,89834.13,37.12,0,0.00,0.00,0.00,0.00
440,281.76,0.66,-0.66,9.51,-2.20,4.64,5.49,1003.90,999.96,3.94,0.66,-0.66,-0.00,1003.74,-0.02,89833.64,37.13,0,0.00,0.00,0.00,0.00
441,282.27,0.65,-0.68,9.52,2.44,4.03,-3.30,1003.91,999.96,3.95,0.65,-0.68,0.00,1003.77,0.01,89833.59,37.14,0,0.00,0.00,0.00,0.00
442,282.77,0.67,-0.67,9.52,-3.05,-5.62,0.00,1004.02,999.96,4.06,0.67,-0.67,-0.00,1003.81,0.03,89832.37,37.14,0,0.00,0.00,0.00,0.00
443,283.27,0.64,-0.66,9.52,0.49,-0.61,-9.16,1003.78,999.96,3.82,0.64,-0.66,0.00,1003.80,0.01,89835.03,37.15,0,0.00,0.00,0.00,0.00
444,283.78,0.66,-0.68,9.50,2.32,4.39,3.42,1004.03,999.96,4.07,0.66,-0.68,-0.01,1003.79,0.01,89832.23,37.15,0,0.00,0.00,0.00,0.00
445,284.28,0.66,-0.67,9.51,-2.20,-4.27,-4.03,1003.92,999.96,3.97,0.66,-0.67,-0.00,1003.85,0.04,89833.41,37.16,0,0.00,0.00,0.00,0.00
446,284.79,0.65,-0.65,9.51,4.03,1.59,3.54,1003.83,999.96,3.88,0.65,-0.65,-0.00,1003.85,0.03,89834.40,37.17,0,0.00,0.00,0.00,0.00
447,285.29,0.66,-0.66,9.52,4.52,-0.98,1.83,1003.90,999.96,3.94,0.66,-0.66,0.00,1003.82,0.00,89833.71,37.17,0,0.00,0.00,0.00,0.00
448,285.79,0.68,-0.68,9.51,-0.85,0.61,0.24,1003.96,999.96,4.00,0.68,-0.68,-0.01,1003.83,0.01,89833.03,37.17,0,0.00,0.00,0.00,0.00
449,286.30,0.62,-0.66,9.51,3.30,-0.49,0.49,1003.90,999.96,3.94,0.62,-0.66,-0.01,1003.82,-0.01,89833.65,37.18,0,0.00,0.00,0.00,0.00
450,286.80,0.65,-0.66,9.53,8.42,1.95,-4.27,1003.92,999.96,3.97,0.65,-0.66,0.01,1003.82,-0.00,89833.41,37.18,0,0.00,0.00,0.00,0.00
451,287.31,0.67,-0.69,9.51,-0.85,2.93,1.46,1003.96,999.96,4.00,0.67,-0.69,-0.00,1003.82,0.00,89833.01,37.19,0,0.00,0.00,0.00,0.00
452,287.81,0.64,-0.66,9.52,-2.20,2.81,3.91,1003.88,999.96,3.93,0.64,-0.66,0.01,1003.78,-0.03,89833.84,37.19,0,0.00,0.00,0.00,0.00
453,288.31,0.66,-0.66,9.51,5.37,-2.56,-2.69,1003.99,999.96,4.03,0.66,-0.66,-0.00,1003.81,0.00,89832.70,37.19,0,0.00,0.00,0.00,0.00
454,288.82,0.66,-0.68,9.52,6.84,1.71,2.44,1004.00,999.96,4.05,0.66,-0.68,0.00,1003.90,0.05,89832.56,37.20,0,0.00,0.00,0.00,0.00
455,289.32,0.65,-0.66,9.52,0.24,-1.10,-0.61,1003.92,999.96,3.96,0.65,-0.66,0.01,1003.88,0.03,89833.48,37.20,0,0.00,0.00,0.00,0.00
456,289.83,0.65,-0.67,9.51,0.00,5.00,0.12,1003.95,999.96,3.99,0.65,-0.67,-0.01,1003.90,0.03,89833.20,37.20,0,0.00,0.00,0.00,0.00
457,290.33,0.65,-0.67,9.52,4.64,4.76,-3.78,1004.04,999.96,4.08,0.65,-0.67,0.00,1003.92,0.04,89832.16,37.21,0,0.00,0.00,0.00,0.00
458,290.83,0.64,-0.67,9.52,-0.98,-2.32,0.00,1003.86,999.96,3.91,0.64,-0.67,0.00,1003.86,-0.01,89834.07,37.22,0,0.00,0.00,0.00,0.00
459,291.34,0.64,-0.67,9.52,-0.61,-1.46,-3.42,1003.93,999.96,3.97,0.64,-0.67,0.00,1003.79,-0.05,89833.38,37.23,0,0.00,0.00,0.00,0.00
460,291.84,0.64,-0.66,9.51,-1.34,-1.46,1.59,1003.91,999.96,3.95,0.64,-0.66,-0.00,1003.82,-0.02,89833.55,37.24,0,0.00,0.00,0.00,0.00
461,292.35,0.64,-0.66,9.51,0.00,-3.54,4.15,1003.88,999.96,3.92,0.64,-0.66,-0.01,1003.78,-0.04,89833.88,37.24,0,0.00,0.00,0.00,0.00
462,292.85,0.65,-0.67,9.51,-4.15,-3.42,-7.08,1004.01,999.96,4.05,0.65,-0.67,-0.00,1003.82,0.00,89832.49,37.24,0,0.00,0.00,0.00,0.00
463,293.35,0.66,-0.67,9.52,-2.20,-0.24,0.00,1003.95,999.96,4.00,0.66,-0.67,-0.00,1003.85,0.02,89833.10,37.24,0,0.00,0.00,0.00,0.00
464,293.86,0.62,-0.65,9.52,3.17,6.59,8.67,1003.96,999.96,4.01,0.62,-0.65,0.01,1003.84,0.01,89832.97,37.25,0,0.00,0.00,0.00,0.00
465,294.36,0.68,-0.67,9.52,0.00,2.56,1.34,1003.89,999.96,3.93,0.68,-0.67,0.01,1003.85,0.01,89833.77,37.25,0,0.00,0.00,0.00,0.00
466,294.87,0.64,-0.65,9.51,1.10,-3.91,-4.76,1003.78,999.96,3.82,0.64,-0.65,-0.00,1003.79,-0.03,89834.98,37.26,0,0.00,0.00,0.00,0.00
467,295.37,0.67,-0.69,9.52,-1.83,7.69,4.27,1003.93,999.96,3.98,0.67,-0.69,0.00,1003.75,-0.05,89833.30,37.26,0,0.00,0.00,0.00,0.00
468,295.87,0.64,-0.67,9.51,-6.35,-0.24,-2.44,1004.00,999.96,4.04,0.64,-0.67,-0.01,1003.80,0.01,89832.63,37.27,0,0.00,0.00,0.00,0.00
469,296.38,0.66,-0.66,9.51,1.10,2.81,0.00,1004.07,999.96,4.11,0.66,-0.66,-0.00,1003.91,0.06,89831.80,37.27,0,0.00,0.00,0.00,0.00
470,296.88,0.66,-0.66,9.51,1.71,-1.34,0.37,1004.04,999.96,4.08,0.66,-0.66,-0.00,1003.96,0.07,89832.14,37.28,0,0.00,0.00,0.00,0.00
471,297.39,0.66,-0.66,9.52,-1.71,0.49,0.49,1003.89,999.96,3.93,0.66,-0.66,0.00,1003.95,0.05,89833.81,37.28,0,0.00,0.00,0.00,0.00
472,297.89,0.68,-0.68,9.50,1.83,-1.22,-0.37,1003.98,999.96,4.02,0.68,-0.68,-0.01,1003.88,-0.01,89832.78,37.29,0,0.00,0.00,0.00,0.00
473,298.39,0.65,-0.68,9.52,-0.37,6.71,10.62,1004.00,999.96,4.04,0.65,-0.68,0.01,1003.91,0.02,89832.59,37.30,0,0.00,0.00,0.00,0.00
474,298.90,0.64,-0.67,9.53,-1.10,-1.83,-7.57,1003.81,999.96,3.85,0.64,-0.67,0.01,1003.81,-0.05,89834.72,37.30,0,0.00,0.00,0.00,0.00
475,299.40,0.64,-0.66,9.52,6.47,4.76,1.59,1003.97,999.96,4.01,0.64,-0.66,0.00,1003.82,-0.03,89832.96,37.30,0,0.00,0.00,0.00,0.00
476,299.91,0.69,-0.69,9.52,1.95,-1.10,3.42,1004.15,999.96,4.19,0.69,-0.69,-0.00,1003.90,0.04,89830.96,37.31,0,0.00,0.00,0.00,0.00
477,300.41,0.65,-0.67,9.52,-3.91,1.46,-8.30,1004.05,999.96,4.09,0.65,-0.67,0.00,1003.99,0.08,89832.05,37.32,0,0.00,0.00,0.00,0.00
478,300.91,0.66,-0.67,9.52,2.08,3.66,-1.22,1004.03,999.96,4.07,0.66,-0.67,0.00,1003.94,0.03,89832.27,37.32,0,0.00,0.00,0.00,0.00
479,301.42,0.64,-0.64,9.51,-5.49,-4.76,-1.83,1004.02,999.96,4.06,0.64,-0.64,-0.00,1003.89,-0.00,89832.37,37.33,0,0.00,0.00,0.00,0.00
480,301.92,0.65,-0.65,9.53,-7.81,2.56,2.69,1004.07,999.96,4.11,0.65,-0.65,0.01,1003.91,0.01,89831.86,37.33,0,0.00,0.00,0.00,0.00
481,302.43,0.63,-0.65,9.52,0.37,4.76,6.10,1003.92,999.96,3.97,0.63,-0.65,0.00,1003.85,-0.03,89833.42,37.34,0,0.00,0.00,0.00,0.00
482,302.93,0.66,-0.66,9.51,-1.95,0.00,-1.71,1004.09,999.96,4.13,0.66,-0.66,-0.01,1003.89,0.00,89831.66,37.35,0,0.00,0.00,0.00,0.00
483,303.43,0.67,-0.68,9.52,-1.71,3.91,-3.05,1003.95,999.96,3.99,0.67,-0.68,-0.00,1003.91,0.02,89833.12,37.35,0,0.00,0.00,0.00,0.00
484,303.94,0.64,-0.66,9.52,2.44,-1.83,-7.93,1003.97,999.96,4.02,0.64,-0.66,0.00,1003.89,-0.00,89832.86,37.36,0,0.00,0.00,0.00,0.00
485,304.44,0.65,-0.68,9.51,-4.64,5.86,4.64,1004.00,999.96,4.05,0.65,-0.68,-0.01,1003.88,-0.00,89832.55,37.37,0,0.00,0.00,0.00,0.00
486,304.95,0.66,-0.67,9.51,3.17,0.73,3.42,1004.25,999.96,4.29,0.66,-0.67,-0.01,1003.95,0.05,89829.84,37.37,0,0.00,0.00,0.00,0.00
487,305.45,0.64,-0.67,9.50,-4.27,-4.15,-6.35,1004.34,999.96,4.38,0.64,-0.67,-0.01,1004.09,0.13,89828.86,37.38,0,0.00,0.00,0.00,0.00
488,305.95,0.65,-0.68,9.50,3.66,1.95,-3.78,1004.40,999.96,4.44,0.65,-0.68,-0.01,1004.23,0.17,89828.26,37.39,0,0.00,0.00,0.00,0.00
489,306.46,0.63,-0.66,9.51,0.73,-1.83,-0.12,1004.27,999.96,4.31,0.63,-0.66,-0.00,1004.24,0.12,89829.63,37.39,0,0.00,0.00,0.00,0.00
490,306.96,0.65,-0.66,9.52,4.39,-2.20,-2.93,1004.24,999.96,4.28,0.65,-0.66,0.01,1004.14,0.02,89830.01,37.39,0,0.00,0.00,0.00,0.00
491,307.47,0.65,-0.69,9.51,4.52,4.64,0.00,1004.24,999.96,4.28,0.65,-0.69,-0.01,1004.15,0.02,89829.96,37.39,0,0.00,0.00,0.00,0.00
492,307.97,0.65,-0.65,9.52,5.37,2.44,0.73,1004.11,999.96,4.15,0.65,-0.65,0.01,1004.08,-0.03,89831.41,37.40,0,0.00,0.00,0.00,0.00
493,308.47,0.66,-0.66,9.52,-2.08,4.76,-2.93,1004.11,999.96,4.15,0.66,-0.66,0.01,1004.03,-0.05,89831.41,37.41,0,0.00,0.00,0.00,0.00
494,308.98,0.64,-0.65,9.52,7.08,2.08,-2.56,1004.03,999.96,4.07,0.64,-0.65,0.00,1003.94,-0.09,89832.28,37.42,0,0.00,0.00,0.00,0.00
495,309.48,0.65,-0.66,9.51,-3.30,-1.10,6.23,1004.01,999.96,4.05,0.65,-0.66,-0.00,1003.90,-0.08,89832.50,37.43,0,0.00,0.00,0.00,0.00
496,309.99,0.66,-0.65,9.52,4.27,-0.73,3.30,1004.04,999.96,4.08,0.66,-0.65,-0.00,1003.91,-0.05,89832.22,37.43,0,0.00,0.00,0.00,0.00
497,310.49,0.65,-0.65,9.52,1.46,0.85,6.59,1004.15,999.96,4.19,0.65,-0.65,-0.00,1003.91,-0.03,89830.93,37.43,0,0.00,0.00,0.00,0.00
498,310.99,0.66,-0.66,9.51,-5.98,-0.12,2.08,1004.08,999.96,4.12,0.66,-0.66,-0.00,1004.00,0.03,89831.76,37.44,0,0.00,0.00,0.00,0.00
499,311.50,0.65,-0.67,9.52,3.66,2.56,7.69,1004.21,999.96,4.26,0.65,-0.67,0.01,1004.07,0.06,89830.23,37.45,0,0.00,0.00,0.00,0.00
500,312.00,0.64,-0.67,9.53,0.49,1.95,1.34,1004.15,999.96,4.19,0.64,-0.67,0.02,1004.06,0.04,89830.95,37.45,0,0.00,0.00,0.00,0.00
501,312.51,0.64,-0.68,9.50,0.00,2.32,-1.71,1004.04,999.96,4.08,0.64,-0.68,-0.01,1004.03,0.01,89832.19,37.46,0,0.00,0.00,0.00,0.00
502,313.01,0.64,-0.66,9.53,0.73,3.30,2.32,1004.06,999.96,4.10,0.64,-0.66,0.01,1004.00,-0.01,89831.93,37.46,0,0.00,0.00,0.00,0.00
503,313.51,0.66,-0.67,9.52,0.85,-0.85,-3.42,1004.21,999.96,4.25,0.66,-0.67,0.00,1004.04,0.02,89830.34,37.47,0,0.00,0.00,0.00,0.00
504,314.02,0.66,-0.68,9.52,2.81,2.32,-9.40,1004.08,999.96,4.12,0.66,-0.68,0.00,1004.07,0.03,89831.72,37.47,0,0.00,0.00,0.00,0.00
505,314.52,0.65,-0.66,9.51,0.49,-7.32,3.91,1004.12,999.96,4.17,0.65,-0.66,-0.01,1004.01,-0.02,89831.22,37.47,0,0.00,0.00,0.00,0.00
506,315.03,0.66,-0.65,9.52,-1.10,-3.91,-11.23,1004.13,999.96,4.17,0.66,-0.65,0.01,1004.04,0.01,89831.16,37.48,0,0.00,0.00,0.00,0.00
507,315.53,0.67,-0.66,9.50,5.00,1.71,4.15,1004.11,999.96,4.16,0.67,-0.66,-0.01,1004.04,0.01,89831.34,37.49,0,0.00,0.00,0.00,0.00
508,316.03,0.64,-0.66,9.52,1.34,-0.12,-1.22,1004.25,999.96,4.30,0.64,-0.66,0.00,1004.07,0.03,89829.80,37.49,0,0.00,0.00,0.00,0.00
509,316.54,0.66,-0.67,9.51,1.10,-1.71,-1.71,1004.21,999.96,4.25,0.66,-0.67,-0.00,1004.06,0.02,89830.34,37.49,0,0.00,0.00,0.00,0.00
510,317.04,0.66,-0.66,9.52,-2.20,-1.46,5.25,1004.12,999.96,4.16,0.66,-0.66,0.00,1004.08,0.02,89831.31,37.49,0,0.00,0.00,0.00,0.00
511,317.55,0.69,-0.66,9.52,-1.34,-4.15,1.22,1003.99,999.96,4.03,0.69,-0.66,0.00,1004.00,-0.03,89832.67,37.50,0,0.00,0.00,0.00,0.00
512,318.05,0.68,-0.67,9.52,2.93,0.00,0.49,1004.21,999.96,4.25,0.68,-0.67,-0.00,1004.00,-0.01,89830.30,37.51,0,0.00,0.00,0.00,0.00
513,318.55,0.67,-0.66,9.51,-1.46,2.20,3.30,1004.06,999.96,4.11,0.67,-0.66,-0.01,1004.00,-0.02,89831.89,37.51,0,0.00,0.00,0.00,0.00
514,319.06,0.63,-0.65,9.51,-0.85,-0.12,3.66,1004.11,999.96,4.15,0.63,-0.65,-0.01,1004.03,0.01,89831.39,37.51,0,0.00,0.00,0.00,0.00
515,319.56,0.67,-0.68,9.51,8.30,2.08,5.98,1004.15,999.96,4.20,0.67,-0.68,-0.00,1004.02,0.00,89830.91,37.52,0,0.00,0.00,0.00,0.00
516,320.07,0.67,-0.67,9.51,-3.78,-2.32,2.44,1004.18,999.96,4.22,0.67,-0.67,-0.00,1004.03,0.01,89830.66,37.53,0,0.00,0.00,0.00,0.00
517,320.57,0.66,-0.64,9.52,2.69,2.81,-0.85,1004.18,999.96,4.22,0.66,-0.64,0.00,1004.04,0.01,89830.67,37.54,0,0.00,0.00,0.00,0.00
518,321.07,0.67,-0.66,9.51,0.12,-2.44,1.71,1004.24,999.96,4.28,0.67,-0.66,-0.01,1004.09,0.04,89829.95,37.54,0,0.00,0.00,0.00,0.00
519,321.58,0.66,-0.67,9.51,2.20,0.12,-0.49,1004.26,999.96,4.30,0.66,-0.67,-0.01,1004.15,0.07,89829.74,37.55,0,0.00,0.00,0.00,0.00
520,322.08,0.66,-0.65,9.53,-1.59,1.34,1.22,1004.12,999.96,4.16,0.66,-0.65,0.01,1004.18,0.06,89831.32,37.55,0,0.00,0.00,0.00,0.00
521,322.59,0.68,-0.66,9.52,-8.54,-4.52,-3.91,1004.27,999.96,4.31,0.68,-0.66,0.01,1004.15,0.03,89829.68,37.55,0,0.00,0.00,0.00,0.00
522,323.09,0.67,-0.67,9.51,-0.24,-4.03,10.86,1004.26,999.96,4.30,0.67,-0.67,-0.01,1004.09,-0.01,89829.77,37.55,0,0.00,0.00,0.00,0.00
523,323.59,0.65,-0.65,9.51,-1.22,-4.52,-3.17,1004.25,999.96,4.29,0.65,-0.65,-0.01,1004.13,0.01,89829.84,37.56,0,0.00,0.00,0.00,0.00
524,324.10,0.66,-0.68,9.50,-1.34,-7.45,6.59,1004.26,999.96,4.30,0.66,-0.68,-0.01,1004.19,0.05,89829.73,37.57,0,0.00,0.00,0.00,0.00
525,324.60,0.67,-0.68,9.52,6.23,3.17,9.16,1004.23,999.96,4.27,0.67,-0.68,0.00,1004.18,0.03,89830.14,37.58,0,0.00,0.00,0.00,0.00
526,325.11,0.65,-0.64,9.52,-1.34,-0.85,-2.08,1004.21,999.96,4.26,0.65,-0.64,0.00,1004.14,-0.00,89830.25,37.58,0,0.00,0.00,0.00,0.00
527,325.61,0.63,-0.66,9.52,-2.32,-2.56,1.10,1004.14,999.96,4.19,0.63,-0.66,0.00,1004.05,-0.06,89831.02,37.59,0,0.00,0.00,0.00,0.00
528,326.11,0.69,-0.70,9.51,2.81,5.37,6.84,1004.14,999.96,4.19,0.69,-0.70,-0.01,1004.05,-0.04,89831.04,37.60,0,0.00,0.00,0.00,0.00
529,326.62,0.62,-0.66,9.52,3.54,-1.83,1.59,1004.23,999.96,4.27,0.62,-0.66,0.00,1004.04,-0.03,89830.08,37.60,0,0.00,0.00,0.00,0.00
530,327.12,0.65,-0.67,9.52,-4.03,-2.69,6.84,1004.24,999.96,4.28,0.65,-0.67,0.01,1004.08,-0.00,89829.95,37.60,0,0.00,0.00,0.00,0.00
531,327.63,0.66,-0.67,9.50,-3.66,-3.54,-2.93,1004.21,999.96,4.25,0.66,-0.67,-0.01,1004.07,-0.01,89830.32,37.60,0,0.00,0.00,0.00,0.00
532,328.13,0.66,-0.67,9.52,2.08,1.83,0.24,1004.25,999.96,4.30,0.66,-0.67,0.00,1004.08,0.00,89829.82,37.61,0,0.00,0.00,0.00,0.00
533,328.63,0.66,-0.67,9.51,5.00,6.59,6.35,1004.19,999.96,4.23,0.66,-0.67,-0.00,1004.11,0.02,89830.50,37.62,0,0.00,0.00,0.00,0.00
534,329.14,0.65,-0.66,9.51,0.49,5.25,-0.61,1004.40,999.96,4.45,0.65,-0.66,-0.00,1004.16,0.05,89828.16,37.63,0,0.00,0.00,0.00,0.00
535,329.64,0.66,-0.65,9.52,-0.73,-0.24,1.95,1004.28,999.96,4.32,0.66,-0.65,0.01,1004.20,0.06,89829.54,37.63,0,0.00,0.00,0.00,0.00
536,330.15,0.65,-0.66,9.53,-2.20,-8.54,3.42,1004.25,999.96,4.29,0.65,-0.66,0.01,1004.20,0.04,89829.84,37.64,0,0.00,0.00,0.00,0.00
537,330.65,0.68,-0.67,9.52,2.20,-1.83,1.22,1004.24,999.96,4.28,0.68,-0.67,0.01,1004.17,0.01,89829.97,37.64,0,0.00,0.00,0.00,0.00
538,331.15,0.64,-0.66,9.52,-2.08,5.62,-7.57,1004.35,999.96,4.39,0.64,-0.66,0.01,1004.19,0.02,89828.80,37.64,0,0.00,0.00,0.00,0.00
539,331.66,0.65,-0.65,9.52,-2.32,-1.83,-6.96,1004.30,999.96,4.35,0.65,-0.65,0.00,1004.17,0.00,89829.28,37.64,0,0.00,0.00,0.00,0.00
540,332.16,0.67,-0.66,9.52,-1.46,0.00,0.49,1004.29,999.96,4.34,0.67,-0.66,0.00,1004.21,0.03,89829.39,37.64,0,0.00,0.00,0.00,0.00
541,332.67,0.66,-0.66,9.51,-5.13,4.64,7.57,1004.39,999.96,4.44,0.66,-0.66,-0.00,1004.17,-0.00,89828.28,37.65,0,0.00,0.00,0.00,0.00
542,333.17,0.68,-0.68,9.52,5.13,3.17,2.56,1004.35,999.96,4.39,0.68,-0.68,0.00,1004.20,0.02,89828.77,37.65,0,0.00,0.00,0.00,0.00
543,333.67,0.64,-0.64,9.51,7.08,-1.46,-0.37,1004.37,999.96,4.41,0.64,-0.64,-0.00,1004.24,0.03,89828.59,37.66,0,0.00,0.00,0.00,0.00
544,334.18,0.68,-0.66,9.52,0.73,3.42,-3.42,1004.41,999.96,4.45,0.68,-0.66,-0.00,1004.20,0.00,89828.13,37.66,0,0.00,0.00,0.00,0.00
545,334.68,0.68,-0.67,9.51,-7.20,3.91,-5.49,1004.27,999.96,4.31,0.68,-0.67,-0.01,1004.17,-0.01,89829.61,37.66,0,0.00,0.00,0.00,0.00
546,335.19,0.66,-0.65,9.52,-0.98,-8.79,1.59,1004.21,999.96,4.25,0.66,-0.65,0.00,1004.16,-0.01,89830.27,37.67,0,0.00,0.00,0.00,0.00
547,335.69,0.64,-0.67,9.51,2.69,0.49,-0.12,1004.32,999.96,4.36,0.64,-0.67,-0.01,1004.16,-0.01,89829.09,37.68,0,0.00,0.00,0.00,0.00
548,336.19,0.66,-0.66,9.52,-0.73,1.71,-5.37,1004.44,999.96,4.49,0.66,-0.66,0.00,1004.23,0.05,89827.73,37.67,0,0.00,0.00,0.00,0.00
549,336.70,0.66,-0.66,9.52,6.35,0.24,4.52,1004.44,999.96,4.48,0.66,-0.66,0.00,1004.25,0.04,89827.78,37.68,0,0.00,0.00,0.00,0.00
550,337.20,0.66,-0.65,9.52,2.56,1.10,-2.20,1004.40,999.96,4.45,0.66,-0.65,0.00,1004.25,0.03,89828.17,37.69,0,0.00,0.00,0.00,0.00
551,337.71,0.65,-0.68,9.52,-0.73,-3.17,-7.08,1004.50,999.96,4.54,0.65,-0.68,0.01,1004.28,0.04,89827.12,37.70,0,0.00,0.00,0.00,0.00
552,338.21,0.67,-0.66,9.52,-2.69,4.15,4.64,1004.51,999.96,4.55,0.67,-0.66,0.00,1004.30,0.04,89827.01,37.70,0,0.00,0.00,0.00,0.00
553,338.71,0.67,-0.69,9.52,-2.20,-4.76,0.85,1004.58,999.96,4.63,0.67,-0.69,-0.00,1004.41,0.09,89826.21,37.70,0,0.00,0.00,0.00,0.00
554,339.22,0.65,-0.64,9.52,0.00,-4.64,1.95,1004.48,999.96,4.52,0.65,-0.64,0.00,1004.44,0.08,89827.37,37.71,0,0.00,0.00,0.00,0.00
555,339.72,0.64,-0.66,9.52,0.73,4.03,-1.95,1004.35,999.96,4.39,0.64,-0.66,0.00,1004.34,0.00,89828.74,37.71,0,0.00,0.00,0.00,0.00
556,340.23,0.67,-0.68,9.51,5.25,9.64,0.73,1004.46,999.96,4.50,0.67,-0.68,-0.01,1004.33,-0.00,89827.59,37.71,0,0.00,0.00,0.00,0.00
557,340.73,0.64,-0.65,9.51,1.95,-9.77,-10.13,1004.38,999.96,4.42,0.64,-0.65,-0.01,1004.30,-0.02,89828.44,37.72,0,0.00,0.00,0.00,0.00
558,341.23,0.63,-0.65,9.51,-0.73,2.44,0.24,1004.35,999.96,4.39,0.63,-0.65,-0.01,1004.23,-0.06,89828.77,37.73,0,0.00,0.00,0.00,0.00
559,341.74,0.65,-0.66,9.52,0.61,4.15,-2.32,1004.39,999.96,4.43,0.65,-0.66,0.00,1004.28,-0.00,89828.34,37.73,0,0.00,0.00,0.00,0.00
560,342.24,0.67,-0.68,9.51,-1.34,2.44,2.56,1004.49,999.96,4.53,0.67,-0.68,-0.01,1004.28,0.00,89827.29,37.74,0,0.00,0.00,0.00,0.00
561,342.75,0.66,-0.63,9.53,3.66,1.34,-4.88,1004.79,999.96,4.84,0.66,-0.63,0.01,1004.44,0.10,89823.95,37.74,0,0.00,0.00,0.00,0.00
562,343.25,0.63,-0.64,9.52,1.95,-3.66,5.49,1004.59,999.96,4.63,0.63,-0.64,-0.00,1004.51,0.11,89826.13,37.74,0,0.00,0.00,0.00,0.00
563,343.75,0.70,-0.69,9.49,-3.66,2.93,-2.69,1004.56,999.96,4.60,0.70,-0.69,-0.03,1004.49,0.06,89826.55,37.75,0,0.00,0.00,0.00,0.00
564,344.26,0.64,-0.64,9.51,1.46,-0.37,3.66,1004.59,999.96,4.63,0.64,-0.64,-0.00,1004.48,0.03,89826.12,37.76,0,0.00,0.00,0.00,0.00
565,344.76,0.64,-0.60,9.51,1.22,-4.03,-5.62,1004.48,999.96,4.52,0.64,-0.60,-0.00,1004.41,-0.02,89827.38,37.77,0,0.00,0.00,0.00,0.00
566,345.27,0.60,-0.60,9.53,3.42,-4.88,-4.52,1004.45,999.96,4.49,0.60,-0.60,0.01,1004.35,-0.05,89827.72,37.77,0,0.00,0.00,0.00,0.00
567,345.77,0.62,-0.57,9.52,10.62,-0.37,0.49,1004.46,999.96,4.51,0.62,-0.57,0.00,1004.30,-0.06,89827.53,37.77,0,0.00,0.00,0.00,0.00
568,346.27,0.62,-0.64,9.52,3.54,-0.49,1.22,1004.40,999.96,4.44,0.62,-0.64,0.00,1004.24,-0.08,89828.27,37.78,0,0.00,0.00,0.00,0.00
569,346.78,0.67,-0.69,9.51,5.62,-3.54,10.13,1004.44,999.96,4.49,0.67,-0.69,-0.01,1004.29,-0.03,89827.75,37.79,0,0.00,0.00,0.00,0.00
570,347.28,0.70,-0.69,9.51,5.62,1.10,3.78,1004.44,999.96,4.49,0.70,-0.69,-0.00,1004.27,-0.04,89827.75,37.80,0,0.00,0.00,0.00,0.00
571,347.79,0.66,-0.69,9.53,-2.08,5.37,-2.81,1004.34,999.96,4.38,0.66,-0.69,0.01,1004.27,-0.03,89828.90,37.80,0,0.00,0.00,0.00,0.00
572,348.29,0.62,-0.66,9.52,-3.91,-1.83,-0.61,1004.55,999.96,4.59,0.62,-0.66,0.00,1004.30,0.01,89826.62,37.81,0,0.00,0.00,0.00,0.00
573,348.79,0.65,-0.69,9.53,-6.10,-6.96,-5.62,1004.53,999.96,4.57,0.65,-0.69,0.01,1004.38,0.05,89826.80,37.81,0,0.00,0.00,0.00,0.00
574,349.30,0.66,-0.66,9.53,-0.12,6.35,3.42,1004.61,999.96,4.65,0.66,-0.66,0.01,1004.41,0.06,89825.95,37.81,0,0.00,0.00,0.00,0.00
575,349.80,0.66,-0.69,9.51,1.59,1.95,-5.13,1004.43,999.96,4.48,0.66,-0.69,-0.01,1004.39,0.03,89827.86,37.81,0,0.00,0.00,0.00,0.00
576,350.31,0.64,-0.63,9.52,-9.52,-1.83,1.59,1004.49,999.96,4.53,0.64,-0.63,0.01,1004.38,0.01,89827.26,37.81,0,0.00,0.00,0.00,0.00
577,350.81,0.67,-0.63,9.52,0.85,-7.57,-1.34,1004.56,999.96,4.61,0.67,-0.63,0.00,1004.37,0.00,89826.44,37.82,0,0.00,0.00,0.00,0.00
578,351.31,0.67,-0.68,9.52,3.54,0.61,0.12,1004.61,999.96,4.66,0.67,-0.68,0.00,1004.47,0.06,89825.91,37.83,0,0.00,0.00,0.00,0.00
579,351.82,0.67,-0.76,9.51,-2.44,4.39,-1.71,1004.59,999.96,4.63,0.67,-0.76,-0.01,1004.46,0.04,89826.14,37.83,0,0.00,0.00,0.00,0.00
580,352.32,0.67,-0.66,9.51,-1.34,-7.20,0.49,1004.53,999.96,4.57,0.67,-0.66,-0.00,1004.39,-0.01,89826.83,37.83,0,0.00,0.00,0.00,0.00
581,352.83,0.64,-0.69,9.51,-0.85,-1.10,-3.42,1004.57,999.96,4.61,0.64,-0.69,-0.01,1004.37,-0.01,89826.40,37.84,0,0.00,0.00,0.00,0.00
582,353.33,0.69,-0.66,9.52,-3.30,0.98,1.83,1004.56,999.96,4.60,0.69,-0.66,0.01,1004.46,0.05,89826.49,37.84,0,0.00,0.00,0.00,0.00
583,353.83,0.62,-0.66,9.52,1.22,1.22,-8.91,1004.63,999.96,4.67,0.62,-0.66,0.00,1004.52,0.07,89825.70,37.85,0,0.00,0.00,0.00,0.00
584,354.34,0.67,-0.65,9.53,-6.10,-5.86,0.00,1004.49,999.96,4.53,0.67,-0.65,0.02,1004.47,0.01,89827.21,37.86,0,0.00,0.00,0.00,0.00
585,354.84,0.67,-0.69,9.51,-4.15,-2.32,3.91,1004.60,999.96,4.65,0.67,-0.69,-0.00,1004.45,0.00,89826.00,37.86,0,0.00,0.00,0.00,0.00
586,355.35,0.67,-0.64,9.51,-1.95,-0.73,0.73,1004.60,999.96,4.64,0.67,-0.64,-0.01,1004.48,0.02,89826.08,37.87,0,0.00,0.00,0.00,0.00
587,355.85,0.63,-0.62,9.53,0.61,-3.66,3.91,1004.61,999.96,4.65,0.63,-0.62,0.01,1004.46,-0.00,89825.92,37.88,0,0.00,0.00,0.00,0.00
588,356.35,0.65,-0.63,9.53,1.71,1.10,-0.24,1004.69,999.96,4.73,0.65,-0.63,0.01,1004.55,0.06,89825.07,37.88,0,0.00,0.00,0.00,0.00
589,356.86,0.67,-0.69,9.51,5.62,6.59,1.22,1004.72,999.96,4.76,0.67,-0.69,-0.01,1004.55,0.04,89824.77,37.88,0,0.00,0.00,0.00,0.00
590,357.36,0.65,-0.66,9.52,-4.39,2.32,0.37,1004.64,999.96,4.68,0.65,-0.66,0.01,1004.52,0.01,89825.62,37.88,0,0.00,0.00,0.00,0.00
591,357.87,0.66,-0.64,9.52,1.71,0.37,2.08,1004.60,999.96,4.64,0.66,-0.64,0.00,1004.54,0.02,89826.03,37.88,0,0.00,0.00,0.00,0.00
592,358.37,0.66,-0.68,9.52,2.56,-5.62,-0.73,1004.68,999.96,4.72,0.66,-0.68,0.00,1004.53,0.01,89825.16,37.88,0,0.00,0.00,0.00,0.00
593,358.87,0.65,-0.68,9.52,0.37,3.05,6.59,1004.77,999.96,4.82,0.65,-0.68,0.00,1004.60,0.05,89824.14,37.89,0,0.00,0.00,0.00,0.00
594,359.38,0.63,-0.66,9.52,1.34,0.12,-2.32,1004.75,999.96,4.79,0.63,-0.66,-0.00,1004.64,0.06,89824.41,37.90,0,0.00,0.00,0.00,0.00
595,359.88,0.65,-0.66,9.52,2.08,-3.30,1.59,1004.84,999.96,4.89,0.65,-0.66,0.01,1004.76,0.11,89823.41,37.91,0,0.00,0.00,0.00,0.00
596,360.39,0.67,-0.68,9.51,8.18,2.32,6.35,1004.79,999.96,4.83,0.67,-0.68,-0.01,1004.72,0.06,89823.97,37.91,0,0.00,0.00,0.00,0.00
597,360.89,0.67,-0.64,9.52,-4.15,-5.62,-3.30,1005.03,999.96,5.07,0.67,-0.64,-0.00,1004.79,0.08,89821.40,37.92,0,0.00,0.00,0.00,0.00
598,361.39,0.69,-0.68,9.51,-2.20,-2.32,0.49,1004.65,999.96,4.69,0.69,-0.68,-0.00,1004.80,0.05,89825.49,37.92,0,0.00,0.00,0.00,0.00
599,361.90,0.69,-0.61,9.52,8.30,0.98,1.46,1004.65,999.96,4.69,0.69,-0.61,0.01,1004.66,-0.05,89825.52,37.92,0,0.00,0.00,0.00,0.00
600,362.40,0.67,-0.67,9.52,-4.15,-4.52,-1.46,1004.58,999.96,4.62,0.67,-0.67,0.01,1004.53,-0.11,89826.26,37.93,0,0.00,0.00,0.00,0.00
601,362.91,0.63,-0.60,9.53,4.03,10.38,-0.49,1004.90,999.96,4.94,0.63,-0.60,0.02,1004.55,-0.06,89822.78,37.93,0,0.00,0.00,0.00,0.00
602,363.41,0.70,-0.71,9.51,4.64,-0.49,6.71,1004.73,999.96,4.77,0.70,-0.71,-0.01,1004.67,0.02,89824.62,37.94,0,0.00,0.00,0.00,0.00
603,363.91,0.69,-0.65,9.51,-1.46,-0.49,5.49,1004.65,999.96,4.69,0.69,-0.65,-0.00,1004.64,-0.01,89825.53,37.93,0,0.00,0.00,0.00,0.00
604,364.42,0.68,-0.66,9.51,0.61,0.73,-3.78,1004.59,999.96,4.63,0.68,-0.66,-0.00,1004.58,-0.04,89826.20,37.94,0,0.00,0.00,0.00,0.00
605,364.92,0.61,-0.60,9.54,-2.93,-6.84,2.20,1004.69,999.96,4.73,0.61,-0.60,0.03,1004.61,-0.01,89825.02,37.94,0,0.00,0.00,0.00,0.00
606,365.43,0.63,-0.59,9.53,-2.69,-0.85,5.00,1004.71,999.96,4.75,0.63,-0.59,0.01,1004.61,-0.00,89824.84,37.95,0,0.00,0.00,0.00,0.00
607,365.93,0.68,-0.67,9.51,-3.05,-3.05,-4.27,1004.80,999.96,4.84,0.68,-0.67,-0.00,1004.63,0.01,89823.91,37.95,0,0.00,0.00,0.00,0.00
608,366.43,0.63,-0.66,9.52,3.78,0.00,-3.54,1004.94,999.96,4.98,0.63,-0.66,0.00,1004.76,0.09,89822.32,37.95,0,0.00,0.00,0.00,0.00
609,366.94,0.64,-0.65,9.51,3.42,6.10,7.20,1004.82,999.96,4.86,0.64,-0.65,-0.01,1004.81,0.09,89823.64,37.96,0,0.00,0.00,0.00,0.00
610,367.44,0.67,-0.72,9.50,-0.49,3.30,-3.05,1004.76,999.96,4.81,0.67,-0.72,-0.02,1004.76,0.03,89824.27,37.97,0,0.00,0.00,0.00,0.00
611,367.95,0.68,-0.68,9.53,3.42,2.44,-1.10,1004.83,999.96,4.87,0.68,-0.68,0.01,1004.70,-0.02,89823.55,37.97,0,0.00,0.00,0.00,0.00
612,368.45,0.62,-0.66,9.53,0.61,-0.61,-0.12,1004.80,999.96,4.84,0.62,-0.66,0.01,1004.71,-0.00,89823.85,37.98,0,0.00,0.00,0.00,0.00
613,368.95,0.62,-0.64,9.53,0.49,0.12,-1.46,1004.65,999.96,4.69,0.62,-0.64,0.01,1004.72,-0.00,89825.54,37.98,0,0.00,0.00,0.00,0.00
614,369.46,0.64,-0.67,9.51,1.71,6.71,-2.81,1004.51,999.96,4.56,0.64,-0.67,-0.00,1004.60,-0.07,89826.99,37.98,0,0.00,0.00,0.00,0.00
615,369.96,0.65,-0.66,9.52,-1.71,-6.35,2.69,1004.77,999.96,4.81,0.65,-0.66,-0.00,1004.57,-0.06,89824.20,38.00,0,0.00,0.00,0.00,0.00
616,370.47,0.64,-0.66,9.51,0.61,4.15,0.00,1004.95,999.96,4.99,0.64,-0.66,-0.01,1004.74,0.07,89822.24,38.01,0,0.00,0.00,0.00,0.00
617,370.97,0.66,-0.65,9.52,1.83,-6.23,5.49,1005.11,999.96,5.15,0.66,-0.65,0.00,1004.83,0.10,89820.52,38.01,0,0.00,0.00,0.00,0.00
618,371.47,0.68,-0.69,9.52,-0.24,3.66,7.20,1004.84,999.96,4.88,0.68,-0.69,-0.00,1004.80,0.05,89823.43,38.01,0,0.00,0.00,0.00,0.00
619,371.98,0.64,-0.62,9.52,4.27,1.10,0.00,1004.90,999.96,4.94,0.64,-0.62,0.00,1004.84,0.07,89822.81,38.02,0,0.00,0.00,0.00,0.00
620,372.48,0.67,-0.67,9.51,-1.10,-6.96,3.17,1004.80,999.96,4.84,0.67,-0.67,-0.01,1004.83,0.04,89823.91,38.02,0,0.00,0.00,0.00,0.00
621,372.99,0.69,-0.69,9.51,0.85,2.81,0.37,1004.77,999.96,4.81,0.69,-0.69,-0.01,1004.75,-0.02,89824.17,38.03,0,0.00,0.00,0.00,0.00
622,373.49,0.63,-0.64,9.52,-0.12,2.81,0.85,1004.91,999.96,4.95,0.63,-0.64,0.00,1004.73,-0.02,89822.68,38.03,0,0.00,0.00,0.00,0.00
623,373.99,0.65,-0.63,9.52,-1.22,-1.95,-1.71,1004.68,999.96,4.72,0.65,-0.63,0.01,1004.71,-0.03,89825.20,38.03,0,0.00,0.00,0.00,0.00
624,374.50,0.66,-0.65,9.52,-2.93,3.17,-1.83,1004.63,999.96,4.68,0.66,-0.65,0.00,1004.61,-0.08,89825.68,38.03,0,0.00,0.00,0.00,0.00
625,375.00,0.64,-0.65,9.52,-3.05,0.37,-4.03,1004.70,999.96,4.75,0.64,-0.65,0.01,1004.57,-0.08,89824.92,38.05,0,0.00,0.00,0.00,0.00
626,375.51,0.66,-0.68,9.52,3.54,-3.30,4.88,1004.64,999.96,4.68,0.66,-0.68,-0.00,1004.55,-0.06,89825.61,38.05,0,0.00,0.00,0.00,0.00
627,376.01,0.66,-0.64,9.50,-2.93,1.22,-5.62,1004.78,999.96,4.82,0.66,-0.64,-0.02,1004.62,-0.00,89824.05,38.05,0,0.00,0.00,0.00,0.00
628,376.51,0.63,-0.67,9.52,0.12,-5.49,-6.84,1004.71,999.96,4.75,0.63,-0.67,0.00,1004.64,0.01,89824.85,38.05,0,0.00,0.00,0.00,0.00
629,377.02,0.66,-0.67,9.52,3.78,1.59,3.17,1004.67,999.96,4.72,0.66,-0.67,0.00,1004.61,-0.01,89825.23,38.06,0,0.00,0.00,0.00,0.00
630,377.52,0.59,-0.61,9.53,1.95,0.49,-1.34,1004.65,999.96,4.69,0.59,-0.61,0.01,1004.60,-0.01,89825.55,38.06,0,0.00,0.00,0.00,0.00
631,378.03,0.63,-0.68,9.51,0.61,4.88,2.69,1004.84,999.96,4.88,0.63,-0.68,-0.00,1004.70,0.06,89823.45,38.07,0,0.00,0.00,0.00,0.00
632,378.53,0.67,-0.67,9.52,-1.22,-4.76,-0.73,1005.09,999.96,5.13,0.67,-0.67,0.01,1004.82,0.12,89820.74,38.08,0,0.00,0.00,0.00,0.00
633,379.03,0.66,-0.69,9.52,3.91,6.71,5.62,1004.91,999.96,4.96,0.66,-0.69,0.01,1004.98,0.18,89822.63,38.08,0,0.00,0.00,0.00,0.00
634,379.54,0.66,-0.68,9.51,2.81,4.39,-1.59,1004.90,999.96,4.94,0.66,-0.68,-0.01,1004.90,0.07,89822.78,38.09,0,0.00,0.00,0.00,0.00
635,380.04,0.64,-0.66,9.52,2.56,2.81,-1.95,1004.86,999.96,4.90,0.64,-0.66,0.00,1004.91,0.06,89823.24,38.09,0,0.00,0.00,0.00,0.00
636,380.55,0.60,-0.66,9.53,2.93,1.34,-1.71,1005.08,999.96,5.12,0.60,-0.66,0.01,1004.97,0.08,89820.88,38.10,0,0.00,0.00,0.00,0.00
637,381.05,0.65,-0.66,9.52,0.85,-1.10,0.00,1004.83,999.96,4.87,0.65,-0.66,0.00,1004.87,-0.01,89823.53,38.10,0,0.00,0.00,0.00,0.00
638,381.55,0.69,-0.68,9.52,4.15,3.30,-10.50,1004.67,999.96,4.71,0.69,-0.68,0.00,1004.74,-0.08,89825.32,38.11,0,0.00,0.00,0.00,0.00
639,382.06,0.66,-0.67,9.52,1.83,-1.46,-5.62,1004.81,999.96,4.85,0.66,-0.67,0.00,1004.72,-0.07,89823.80,38.10,0,0.00,0.00,0.00,0.00
640,382.56,0.60,-0.57,9.52,1.95,-0.85,2.81,1005.30,999.96,5.35,0.60,-0.57,0.01,1004.90,0.07,89818.38,38.11,0,0.00,0.00,0.00,0.00
641,383.07,0.64,-0.64,9.52,3.78,0.24,2.08,1004.98,999.96,5.02,0.64,-0.64,-0.00,1005.09,0.14,89821.90,38.12,0,0.00,0.00,0.00,0.00
642,383.57,0.63,-0.61,9.52,0.61,7.69,6.10,1005.03,999.96,5.07,0.63,-0.61,0.01,1005.06,0.09,89821.39,38.12,0,0.00,0.00,0.00,0.00
643,384.07,0.66,-0.64,9.51,2.20,-1.59,1.46,1004.96,999.96,5.00,0.66,-0.64,-0.00,1005.04,0.05,89822.10,38.12,0,0.00,0.00,0.00,0.00
644,384.58,0.60,-0.58,9.52,-1.34,-1.46,1.59,1005.00,999.96,5.04,0.60,-0.58,-0.00,1005.00,0.01,89821.68,38.13,0,0.00,0.00,0.00,0.00
645,385.08,0.58,-0.62,9.51,7.81,-5.98,3.91,1005.14,999.96,5.19,0.58,-0.62,-0.01,1005.01,0.02,89820.12,38.13,0,0.00,0.00,0.00,0.00
646,385.59,0.63,-0.72,9.53,1.46,0.73,2.32,1005.10,999.96,5.14,0.63,-0.72,0.01,1005.05,0.04,89820.56,38.14,0,0.00,0.00,0.00,0.00
647,386.09,0.60,-0.66,9.53,-3.42,-3.78,0.49,1004.91,999.96,4.95,0.60,-0.66,0.01,1004.98,-0.01,89822.72,38.14,0,0.00,0.00,0.00,0.00
648,386.59,0.51,-0.50,9.54,3.78,-1.71,1.46,1004.86,999.96,4.90,0.51,-0.50,0.01,1004.86,-0.08,89823.21,38.15,0,0.00,0.00,0.00,0.00
649,387.10,0.49,-0.48,9.54,0.12,0.00,-1.22,1004.80,999.96,4.84,0.49,-0.48,0.01,1004.81,-0.08,89823.88,38.16,0,0.00,0.00,0.00,0.00
650,387.60,0.55,-0.60,9.53,4.76,-4.03,1.59,1004.93,999.96,4.97,0.55,-0.60,0.01,1004.80,-0.06,89822.44,38.16,0,0.00,0.00,0.00,0.00
651,388.11,0.52,-0.53,9.54,6.47,6.96,6.47,1004.99,999.96,5.03,0.52,-0.53,0.01,1004.82,-0.02,89821.78,38.16,0,0.00,0.00,0.00,0.00
652,388.61,0.55,-0.51,9.53,7.20,3.17,-1.34,1005.18,999.96,5.22,0.55,-0.51,0.01,1004.96,0.07,89819.73,38.16,0,0.00,0.00,0.00,0.00
653,389.11,0.55,-0.57,9.53,-2.32,-5.49,-5.13,1005.07,999.96,5.11,0.55,-0.57,0.01,1005.01,0.08,89820.98,38.17,0,0.00,0.00,0.00,0.00
654,389.62,0.56,-0.51,9.52,-1.71,-3.78,-4.64,1005.20,999.96,5.24,0.56,-0.51,-0.00,1005.08,0.11,89819.51,38.17,0,0.00,0.00,0.00,0.00
655,390.12,0.61,-0.55,9.52,2.81,-5.74,-8.67,1005.04,999.96,5.08,0.61,-0.55,-0.00,1005.10,0.08,89821.29,38.18,0,0.00,0.00,0.00,0.00
656,390.63,0.59,-0.54,9.53,3.54,-2.81,4.03,1005.16,999.96,5.20,0.59,-0.54,0.00,1005.07,0.05,89819.95,38.18,0,0.00,0.00,0.00,0.00
657,391.13,0.55,-0.56,9.52,0.61,7.57,10.86,1005.05,999.96,5.10,0.55,-0.56,-0.01,1005.06,0.03,89821.08,38.18,0,0.00,0.00,0.00,0.00
658,391.63,0.53,-0.59,9.53,-0.85,-5.13,-1.22,1005.06,999.96,5.10,0.53,-0.59,0.01,1005.05,0.02,89821.02,38.19,0,0.00,0.00,0.00,0.00
659,392.14,0.54,-0.58,9.53,3.91,3.54,-0.85,1005.11,999.96,5.15,0.54,-0.58,0.01,1005.09,0.04,89820.52,38.19,0,0.00,0.00,0.00,0.00
660,392.64,0.52,-0.58,9.52,2.08,-6.47,6.71,1005.09,999.96,5.13,0.52,-0.58,-0.01,1005.05,0.00,89820.69,38.19,0,0.00,0.00,0.00,0.00
661,393.15,0.55,-0.55,9.53,0.00,0.98,-1.34,1004.95,999.96,4.99,0.55,-0.55,0.01,1004.98,-0.04,89822.22,38.20,0,0.00,0.00,0.00,0.00
662,393.65,0.50,-0.59,9.53,3.54,3.78,4.76,1004.85,999.96,4.89,0.50,-0.59,-0.00,1004.87,-0.09,89823.37,38.20,0,0.00,0.00,0.00,0.00
663,394.15,0.58,-0.56,9.52,-3.78,5.25,5.62,1004.80,999.96,4.84,0.58,-0.56,-0.00,1004.84,-0.08,89823.84,38.21,0,0.00,0.00,0.00,0.00
664,394.66,0.54,-0.57,9.53,3.78,0.37,-4.88,1004.95,999.96,4.99,0.54,-0.57,0.00,1004.78,-0.09,89822.23,38.21,0,0.00,0.00,0.00,0.00
665,395.16,0.57,-0.52,9.53,0.85,-5.74,-3.05,1004.83,999.96,4.88,0.57,-0.52,0.00,1004.89,-0.00,89823.51,38.22,0,0.00,0.00,0.00,0.00
666,395.67,0.56,-0.52,9.53,-1.34,4.88,-1.46,1005.30,999.96,5.35,0.56,-0.52,0.00,1004.94,0.04,89818.39,38.23,0,0.00,0.00,0.00,0.00
667,396.17,0.61,-0.60,9.52,5.62,-1.22,-1.22,1005.21,999.96,5.26,0.61,-0.60,-0.00,1005.24,0.20,89819.36,38.23,0,0.00,0.00,0.00,0.00
668,396.67,0.52,-0.49,9.53,0.85,-1.22,-8.54,1005.06,999.96,5.10,0.52,-0.49,0.01,1005.15,0.09,89821.06,38.23,0,0.00,0.00,0.00,0.00
669,397.18,0.55,-0.53,9.53,2.56,2.20,3.17,1005.35,999.96,5.40,0.55,-0.53,0.00,1005.09,0.03,89817.83,38.23,0,0.00,0.00,0.00,0.00
670,397.68,0.56,-0.51,9.53,4.39,0.49,4.03,1005.12,999.96,5.16,0.56,-0.51,-0.00,1005.20,0.09,89820.41,38.24,0,0.00,0.00,0.00,0.00
671,398.19,0.59,-0.57,9.52,-4.39,-0.61,-0.73,1005.14,999.96,5.19,0.59,-0.57,-0.01,1005.17,0.04,89820.12,38.25,0,0.00,0.00,0.00,0.00
672,398.69,0.55,-0.56,9.53,0.61,1.46,3.42,1005.11,999.96,5.16,0.55,-0.56,0.01,1005.15,0.02,89820.45,38.25,0,0.00,0.00,0.00,0.00
673,399.19,0.57,-0.52,9.54,-1.46,-0.85,0.49,1005.35,999.96,5.39,0.57,-0.52,0.01,1005.30,0.10,89817.88,38.25,0,0.00,0.00,0.00,0.00
674,399.70,0.55,-0.55,9.52,3.54,0.00,-1.22,1004.93,999.96,4.97,0.55,-0.55,-0.01,1005.22,0.01,89822.50,38.26,0,0.00,0.00,0.00,0.00
675,400.20,0.55,-0.57,9.52,-1.46,1.71,0.61,1004.91,999.96,4.95,0.55,-0.57,-0.01,1005.02,-0.11,89822.70,38.26,0,0.00,0.00,0.00,0.00
676,400.71,0.56,-0.57,9.53,-1.22,-0.12,-2.32,1005.31,999.96,5.35,0.56,-0.57,0.00,1005.09,-0.02,89818.37,38.27,0,0.00,0.00,0.00,0.00
677,401.21,0.55,-0.55,9.53,-1.34,1.59,-2.44,1005.25,999.96,5.30,0.55,-0.55,0.01,1005.21,0.05,89818.93,38.28,0,0.00,0.00,0.00,0.00
678,401.71,0.52,-0.55,9.53,-4.15,0.12,2.69,1005.21,999.96,5.26,0.52,-0.55,-0.00,1005.20,0.04,89819.36,38.29,0,0.00,0.00,0.00,0.00
679,402.22,0.54,-0.57,9.52,0.73,-4.52,0.98,1005.21,999.96,5.25,0.54,-0.57,-0.00,1005.18,0.01,89819.41,38.29,0,0.00,0.00,0.00,0.00
680,402.72,0.54,-0.59,9.52,-3.05,0.00,-2.81,1005.23,999.96,5.27,0.54,-0.59,-0.00,1005.18,0.01,89819.23,38.30,0,0.00,0.00,0.00,0.00
681,403.23,0.50,-0.57,9.53,-5.00,-3.91,-3.42,1005.10,999.96,5.14,0.50,-0.57,-0.00,1005.17,0.00,89820.59,38.29,0,0.00,0.00,0.00,0.00
682,403.73,0.56,-0.55,9.53,0.61,-1.95,0.49,1005.18,999.96,5.22,0.56,-0.55,0.00,1005.05,-0.07,89819.74,38.29,0,0.00,0.00,0.00,0.00
683,404.23,0.53,-0.57,9.53,4.88,4.15,-0.85,1005.03,999.96,5.07,0.53,-0.57,0.01,1005.03,-0.06,89821.35,38.30,0,0.00,0.00,0.00,0.00
684,404.74,0.59,-0.59,9.52,-3.42,-5.25,-2.81,1005.06,999.96,5.10,0.59,-0.59,-0.00,1005.07,-0.02,89821.05,38.30,0,0.00,0.00,0.00,0.00
685,405.24,0.53,-0.57,9.53,1.83,1.22,4.27,1005.01,999.96,5.05,0.53,-0.57,0.00,1004.93,-0.10,89821.59,38.30,0,0.00,0.00,0.00,0.00
686,405.75,0.53,-0.56,9.53,-4.39,5.37,0.24,1005.12,999.96,5.17,0.53,-0.56,0.00,1004.97,-0.04,89820.34,38.31,0,0.00,0.00,0.00,0.00
687,406.25,0.54,-0.53,9.53,2.69,-4.27,-0.37,1005.18,999.96,5.23,0.54,-0.53,0.00,1005.04,0.02,89819.67,38.32,0,0.00,0.00,0.00,0.00
688,406.75,0.59,-0.59,9.52,-1.46,-1.22,-6.35,1005.04,999.96,5.08,0.59,-0.59,-0.01,1005.05,0.02,89821.27,38.32,0,0.00,0.00,0.00,0.00
689,407.26,0.56,-0.53,9.53,-3.78,-5.00,-2.81,1004.93,999.96,4.97,0.56,-0.53,0.00,1005.06,0.01,89822.43,38.33,0,0.00,0.00,0.00,0.00
690,407.76,0.56,-0.55,9.52,4.64,1.59,-4.03,1005.12,999.96,5.17,0.56,-0.55,-0.00,1005.01,-0.02,89820.35,38.33,0,0.00,0.00,0.00,0.00
691,408.27,0.55,-0.56,9.52,-2.44,-4.27,-3.66,1004.83,999.96,4.88,0.55,-0.56,-0.01,1004.98,-0.03,89823.52,38.34,0,0.00,0.00,0.00,0.00
692,408.77,0.57,-0.59,9.52,1.34,-0.12,2.93,1005.02,999.96,5.07,0.57,-0.59,-0.01,1004.95,-0.03,89821.42,38.34,0,0.00,0.00,0.00,0.00
693,409.27,0.55,-0.57,9.54,-1.83,-2.69,-3.17,1005.17,999.96,5.22,0.55,-0.57,0.01,1005.03,0.03,89819.80,38.34,0,0.00,0.00,0.00,0.00
694,409.78,0.53,-0.56,9.52,-1.46,-3.54,-4.39,1005.19,999.96,5.23,0.53,-0.56,-0.00,1005.11,0.07,89819.59,38.34,0,0.00,0.00,0.00,0.00
695,410.28,0.54,-0.54,9.52,0.12,-3.91,1.34,1005.14,999.96,5.18,0.54,-0.54,-0.00,1005.17,0.08,89820.16,38.35,0,0.00,0.00,0.00,0.00
696,410.79,0.59,-0.60,9.52,2.32,-6.35,2.08,1005.04,999.96,5.08,0.59,-0.60,-0.00,1005.09,0.01,89821.27,38.35,0,0.00,0.00,0.00,0.00
697,411.29,0.53,-0.59,9.53,0.00,-1.22,-1.71,1005.12,999.96,5.17,0.53,-0.59,0.00,1005.07,-0.00,89820.34,38.36,0,0.00,0.00,0.00,0.00
698,411.79,0.52,-0.53,9.53,-0.61,-2.56,1.46,1005.14,999.96,5.18,0.52,-0.53,-0.00,1005.11,0.02,89820.17,38.36,0,0.00,0.00,0.00,0.00
699,412.30,0.56,-0.55,9.53,-4.76,0.00,-2.81,1005.43,999.96,5.47,0.56,-0.55,0.01,1005.30,0.14,89817.00,38.36,0,0.00,0.00,0.00,0.00
700,412.80,0.58,-0.61,9.51,-0.49,-1.34,7.57,1005.29,999.96,5.33,0.58,-0.61,-0.01,1005.34,0.12,89818.56,38.36,0,0.00,0.00,0.00,0.00
701,413.31,0.56,-0.57,9.52,-6.47,-1.22,0.00,1005.01,999.96,5.05,0.56,-0.57,-0.01,1005.17,-0.02,89821.57,38.37,0,0.00,0.00,0.00,0.00
702,413.81,0.53,-0.53,9.53,5.49,-0.49,6.10,1004.91,999.96,4.96,0.53,-0.53,-0.00,1004.99,-0.13,89822.62,38.38,0,0.00,0.00,0.00,0.00
703,414.31,0.55,-0.54,9.52,-2.81,1.83,0.24,1004.92,999.96,4.96,0.55,-0.54,-0.01,1004.91,-0.13,89822.54,38.37,0,0.00,0.00,0.00,0.00
704,414.82,0.58,-0.57,9.54,-1.83,4.15,-2.69,1004.95,999.96,4.99,0.58,-0.57,0.01,1004.85,-0.13,89822.24,38.38,0,0.00,0.00,0.00,0.00
705,415.32,0.55,-0.54,9.53,1.59,0.12,2.08,1005.06,999.96,5.10,0.55,-0.54,-0.00,1004.93,-0.04,89821.01,38.38,0,0.00,0.00,0.00,0.00
706,415.83,0.51,-0.54,9.53,-0.85,3.66,0.73,1004.94,999.96,4.98,0.51,-0.54,0.01,1004.95,-0.02,89822.34,38.39,0,0.00,0.00,0.00,0.00
707,416.33,0.53,-0.51,9.53,-3.05,-1.59,-2.32,1005.17,999.96,5.21,0.53,-0.51,0.00,1004.98,0.01,89819.83,38.39,0,0.00,0.00,0.00,0.00
708,416.83,0.57,-0.61,9.53,-0.12,-1.95,-3.54,1005.08,999.96,5.13,0.57,-0.61,0.00,1005.03,0.04,89820.78,38.39,0,0.00,0.00,0.00,0.00
709,417.34,0.54,-0.59,9.53,2.32,0.49,0.61,1005.13,999.96,5.18,0.54,-0.59,0.01,1005.04,0.03,89820.22,38.40,0,0.00,0.00,0.00,0.00
710,417.84,0.50,-0.56,9.53,2.20,5.98,3.30,1005.02,999.96,5.07,0.50,-0.56,0.00,1005.06,0.03,89821.45,38.41,0,0.00,0.00,0.00,0.00
711,418.35,0.54,-0.52,9.54,0.61,7.20,-1.95,1005.08,999.96,5.13,0.54,-0.52,0.01,1005.02,-0.00,89820.79,38.41,0,0.00,0.00,0.00,0.00
712,418.85,0.59,-0.58,9.53,-3.54,1.10,-1.95,1005.06,999.96,5.10,0.59,-0.58,0.00,1005.03,0.00,89821.05,38.41,0,0.00,0.00,0.00,0.00
713,419.35,0.57,-0.57,9.52,7.08,-5.98,-1.22,1005.00,999.96,5.04,0.57,-0.57,-0.00,1005.09,0.04,89821.70,38.42,0,0.00,0.00,0.00,0.00
714,419.86,0.55,-0.54,9.53,-4.64,1.10,1.83,1005.11,999.96,5.15,0.55,-0.54,0.00,1005.11,0.04,89820.51,38.42,0,0.00,0.00,0.00,0.00
715,420.36,0.51,-0.52,9.54,-3.05,4.76,3.42,1005.04,999.96,5.08,0.51,-0.52,0.01,1005.06,-0.00,89821.27,38.42,0,0.00,0.00,0.00,0.00
716,420.87,0.58,-0.55,9.53,2.44,4.39,-5.62,1005.00,999.96,5.05,0.58,-0.55,0.01,1004.99,-0.04,89821.64,38.43,0,0.00,0.00,0.00,0.00
717,421.37,0.58,-0.61,9.52,-3.66,-2.44,12.21,1004.97,999.96,5.02,0.58,-0.61,-0.01,1004.99,-0.03,89822.00,38.43,0,0.00,0.00,0.00,0.00
718,421.87,0.53,-0.52,9.53,1.46,3.78,2.32,1005.03,999.96,5.07,0.53,-0.52,-0.00,1004.97,-0.03,89821.41,38.44,0,0.00,0.00,0.00,0.00
719,422.38,0.55,-0.55,9.52,-7.08,-2.20,5.00,1005.00,999.96,5.04,0.55,-0.55,-0.01,1004.93,-0.04,89821.69,38.44,0,0.00,0.00,0.00,0.00
720,422.88,0.51,-0.63,9.53,-1.83,-6.23,-4.03,1005.17,999.96,5.21,0.51,-0.63,0.00,1005.02,0.03,89819.82,38.44,0,0.00,0.00,0.00,0.00
721,423.39,0.62,-0.53,9.53,1.95,-5.00,-4.03,1005.03,999.96,5.07,0.62,-0.53,0.00,1004.98,-0.00,89821.41,38.45,0,0.00,0.00,0.00,0.00
722,423.89,0.52,-0.56,9.53,1.71,2.81,5.25,1005.11,999.96,5.15,0.52,-0.56,0.01,1005.00,0.01,89820.55,38.46,0,0.00,0.00,0.00,0.00
723,424.39,0.54,-0.54,9.52,4.39,-1.46,-4.03,1004.95,999.96,5.00,0.54,-0.54,-0.01,1004.99,-0.00,89822.19,38.46,0,0.00,0.00,0.00,0.00
724,424.90,0.55,-0.56,9.53,3.54,-1.95,-1.71,1005.04,999.96,5.08,0.55,-0.56,0.01,1004.96,-0.02,89821.24,38.47,0,0.00,0.00,0.00,0.00
725,425.40,0.57,-0.62,9.52,4.03,-5.98,-3.66,1004.87,999.96,4.91,0.57,-0.62,-0.01,1004.91,-0.05,89823.14,38.47,0,0.00,0.00,0.00,0.00
726,425.91,0.55,-0.51,9.53,2.44,9.16,-0.61,1004.83,999.96,4.88,0.55,-0.51,0.00,1004.84,-0.07,89823.52,38.47,0,0.00,0.00,0.00,0.00
727,426.41,0.55,-0.58,9.53,1.46,7.45,-0.85,1004.79,999.96,4.83,0.55,-0.58,0.01,1004.82,-0.06,89823.97,38.48,0,0.00,0.00,0.00,0.00
728,426.91,0.55,-0.57,9.53,2.81,1.95,-1.71,1004.94,999.96,4.98,0.55,-0.57,0.00,1004.81,-0.04,89822.35,38.48,0,0.00,0.00,0.00,0.00
729,427.42,0.58,-0.57,9.54,1.71,-3.30,5.49,1004.93,999.96,4.97,0.58,-0.57,0.01,1004.82,-0.02,89822.51,38.48,0,0.00,0.00,0.00,0.00
730,427.92,0.61,-0.62,9.53,7.20,0.12,-1.22,1004.91,999.96,4.95,0.61,-0.62,-0.00,1004.86,0.01,89822.66,38.48,0,0.00,0.00,0.00,0.00
731,428.43,0.55,-0.54,9.53,0.12,2.56,-2.81,1004.89,999.96,4.94,0.55,-0.54,0.00,1004.86,0.01,89822.86,38.49,0,0.00,0.00,0.00,0.00
732,428.93,0.52,-0.54,9.53,0.85,2.20,-4.88,1004.97,999.96,5.01,0.52,-0.54,-0.00,1004.91,0.04,89822.05,38.49,0,0.00,0.00,0.00,0.00
733,429.43,0.54,-0.54,9.53,-3.91,1.22,-3.05,1005.02,999.96,5.06,0.54,-0.54,0.00,1004.93,0.04,89821.47,38.50,0,0.00,0.00,0.00,0.00
734,429.94,0.58,-0.61,9.52,-1.71,2.93,3.91,1004.99,999.96,5.03,0.58,-0.61,-0.01,1005.01,0.07,89821.80,38.50,0,0.00,0.00,0.00,0.00
735,430.44,0.54,-0.55,9.53,3.54,1.95,-3.30,1004.89,999.96,4.93,0.54,-0.55,0.00,1005.00,0.04,89822.87,38.51,0,0.00,0.00,0.00,0.00
736,430.95,0.53,-0.55,9.53,-0.49,0.73,3.30,1004.91,999.96,4.95,0.53,-0.55,0.00,1004.93,-0.01,89822.69,38.51,0,0.00,0.00,0.00,0.00
737,431.45,0.56,-0.55,9.52,2.56,0.98,5.13,1005.04,999.96,5.08,0.56,-0.55,-0.00,1004.95,0.01,89821.29,38.51,0,0.00,0.00,0.00,0.00
738,431.95,0.54,-0.55,9.54,3.42,0.37,1.10,1004.91,999.96,4.96,0.54,-0.55,0.01,1004.92,-0.01,89822.63,38.51,0,0.00,0.00,0.00,0.00
739,432.46,0.57,-0.59,9.53,-4.88,-6.96,-2.32,1005.09,999.96,5.14,0.57,-0.59,-0.00,1004.95,0.01,89820.67,38.52,0,0.00,0.00,0.00,0.00
740,432.96,0.53,-0.53,9.53,-4.15,-1.34,-3.42,1005.08,999.96,5.13,0.53,-0.53,-0.00,1005.05,0.07,89820.78,38.53,0,0.00,0.00,0.00,0.00
741,433.47,0.55,-0.56,9.53,-3.54,-3.78,2.69,1005.04,999.96,5.09,0.55,-0.56,-0.00,1005.07,0.06,89821.21,38.53,0,0.00,0.00,0.00,0.00
742,433.97,0.54,-0.56,9.52,1.95,-1.71,0.00,1005.01,999.96,5.05,0.54,-0.56,-0.01,1005.04,0.03,89821.62,38.53,0,0.00,0.00,0.00,0.00
743,434.47,0.57,-0.59,9.52,0.98,8.30,3.54,1005.01,999.96,5.05,0.57,-0.59,-0.01,1005.00,-0.01,89821.56,38.54,0,0.00,0.00,0.00,0.00
744,434.98,0.54,-0.54,9.53,-5.13,-1.46,-1.22,1005.02,999.96,5.06,0.54,-0.54,0.01,1004.95,-0.03,89821.46,38.55,0,0.00,0.00,0.00,0.00
745,435.48,0.58,-0.57,9.52,2.20,2.81,7.08,1004.88,999.96,4.92,0.58,-0.57,-0.01,1004.94,-0.03,89822.98,38.55,0,0.00,0.00,0.00,0.00
746,435.99,0.54,-0.56,9.52,0.49,-3.54,-2.32,1005.00,999.96,5.04,0.54,-0.56,-0.01,1004.90,-0.04,89821.68,38.55,0,0.00,0.00,0.00,0.00
747,436.49,0.58,-0.57,9.52,-2.81,-3.30,-4.39,1005.00,999.96,5.04,0.58,-0.57,-0.00,1004.90,-0.03,89821.68,38.56,0,0.00,0.00,0.00,0.00
748,436.99,0.52,-0.51,9.55,3.54,-4.15,3.30,1004.89,999.96,4.93,0.52,-0.51,0.02,1004.93,-0.00,89822.92,38.56,0,0.00,0.00,0.00,0.00
749,437.50,0.59,-0.59,9.54,4.27,-1.95,-3.05,1005.03,999.96,5.07,0.59,-0.59,0.01,1004.95,0.01,89821.38,38.57,0,0.00,0.00,0.00,0.00
750,438.00,0.53,-0.54,9.53,-2.93,-4.52,0.85,1005.15,999.96,5.19,0.53,-0.54,-0.00,1005.02,0.06,89820.04,38.57,0,0.00,0.00,0.00,0.00
751,438.51,0.53,-0.53,9.53,2.08,-0.85,4.64,1005.01,999.96,5.05,0.53,-0.53,-0.00,1005.05,0.05,89821.56,38.58,0,0.00,0.00,0.00,0.00
752,439.01,0.56,-0.61,9.52,4.27,0.49,0.61,1005.04,999.96,5.08,0.56,-0.61,-0.01,1005.02,0.02,89821.30,38.58,0,0.00,0.00,0.00,0.00
753,439.51,0.53,-0.51,9.54,-1.71,0.85,-7.08,1005.11,999.96,5.15,0.53,-0.51,0.02,1005.05,0.04,89820.48,38.58,0,0.00,0.00,0.00,0.00
754,440.02,0.59,-0.60,9.52,-2.32,3.66,6.10,1005.09,999.96,5.14,0.59,-0.60,-0.01,1005.07,0.04,89820.67,38.58,0,0.00,0.00,0.00,0.00
755,440.52,0.53,-0.53,9.54,2.81,0.61,-0.12,1005.07,999.96,5.11,0.53,-0.53,0.01,1005.08,0.03,89820.95,38.58,0,0.00,0.00,0.00,0.00
756,441.03,0.55,-0.57,9.53,-2.20,-7.20,3.91,1005.02,999.96,5.06,0.55,-0.57,-0.00,1005.06,0.01,89821.52,38.58,0,0.00,0.00,0.00,0.00
757,441.53,0.56,-0.58,9.53,-0.73,5.25,1.46,1005.19,999.96,5.23,0.56,-0.58,-0.00,1005.11,0.04,89819.59,38.58,0,0.00,0.00,0.00,0.00
758,442.03,0.56,-0.56,9.53,5.25,-1.22,-0.12,1005.09,999.96,5.13,0.56,-0.56,0.01,1005.14,0.04,89820.75,38.59,0,0.00,0.00,0.00,0.00
759,442.54,0.53,-0.56,9.53,-6.96,-1.22,0.49,1005.02,999.96,5.06,0.53,-0.56,-0.00,1005.07,-0.01,89821.45,38.59,0,0.00,0.00,0.00,0.00
760,443.04,0.55,-0.55,9.52,-7.81,1.34,0.85,1004.97,999.96,5.01,0.55,-0.55,-0.01,1005.01,-0.04,89822.01,38.60,0,0.00,0.00,0.00,0.00
761,443.55,0.57,-0.57,9.53,0.37,3.78,-1.59,1005.08,999.96,5.12,0.57,-0.57,-0.00,1004.96,-0.06,89820.84,38.60,0,0.00,0.00,0.00,0.00
762,444.05,0.57,-0.57,9.52,-5.86,-1.59,0.73,1005.13,999.96,5.17,0.57,-0.57,-0.00,1005.03,0.00,89820.29,38.61,0,0.00,0.00,0.00,0.00
763,444.55,0.54,-0.55,9.52,5.86,-6.35,2.69,1005.06,999.96,5.10,0.54,-0.55,-0.00,1005.07,0.02,89821.05,38.61,0,0.00,0.00,0.00,0.00
764,445.06,0.55,-0.58,9.51,-1.95,0.37,0.24,1005.02,999.96,5.06,0.55,-0.58,-0.01,1005.02,-0.01,89821.52,38.61,0,0.00,0.00,0.00,0.00
765,445.56,0.54,-0.57,9.53,5.00,-3.30,10.01,1005.28,999.96,5.32,0.54,-0.57,0.00,1005.09,0.04,89818.67,38.61,0,0.00,0.00,0.00,0.00
766,446.07,0.55,-0.55,9.53,-3.42,-4.64,-0.12,1005.49,999.96,5.53,0.55,-0.55,-0.00,1005.28,0.15,89816.34,38.62,0,0.00,0.00,0.00,0.00
767,446.57,0.53,-0.52,9.54,3.42,0.85,9.77,1005.30,999.96,5.34,0.53,-0.52,0.01,1005.39,0.17,89818.48,38.62,0,0.00,0.00,0.00,0.00
768,447.07,0.54,-0.51,9.53,0.85,0.98,-0.73,1005.40,999.96,5.45,0.54,-0.51,0.00,1005.37,0.10,89817.28,38.63,0,0.00,0.00,0.00,0.00
769,447.58,0.60,-0.60,9.52,1.71,5.86,-2.32,1005.18,999.96,5.22,0.60,-0.60,-0.01,1005.25,-0.00,89819.76,38.64,0,0.00,0.00,0.00,0.00
770,448.08,0.53,-0.51,9.54,5.00,1.95,-2.44,1005.07,999.96,5.11,0.53,-0.51,0.01,1005.14,-0.07,89820.94,38.64,0,0.00,0.00,0.00,0.00
771,448.59,0.59,-0.55,9.53,0.37,4.27,0.00,1005.20,999.96,5.24,0.59,-0.55,-0.00,1005.06,-0.09,89819.54,38.64,0,0.00,0.00,0.00,0.00
772,449.09,0.56,-0.53,9.53,1.22,2.08,-2.56,1005.09,999.96,5.13,0.56,-0.53,0.00,1005.05,-0.07,89820.68,38.64,0,0.00,0.00,0.00,0.00
773,449.59,0.53,-0.53,9.54,-1.22,-1.95,-1.22,1005.07,999.96,5.12,0.53,-0.53,0.02,1005.09,-0.03,89820.88,38.65,0,0.00,0.00,0.00,0.00
774,450.10,0.61,-0.61,9.53,-0.98,-3.30,-8.54,1005.24,999.96,5.28,0.61,-0.61,0.00,1005.13,0.01,89819.12,38.65,0,0.00,0.00,0.00,0.00
775,450.60,0.54,-0.51,9.54,2.56,-3.30,-0.85,1005.21,999.96,5.25,0.54,-0.51,0.01,1005.22,0.06,89819.40,38.66,0,0.00,0.00,0.00,0.00
776,451.11,0.57,-0.59,9.53,-2.93,-4.64,-1.34,1005.13,999.96,5.18,0.57,-0.59,-0.00,1005.24,0.05,89820.22,38.67,0,0.00,0.00,0.00,0.00
777,451.61,0.55,-0.57,9.53,-3.30,-1.46,-1.71,1005.19,999.96,5.23,0.55,-0.57,0.00,1005.18,-0.00,89819.59,38.67,0,0.00,0.00,0.00,0.00
778,452.11,0.57,-0.57,9.53,2.56,3.66,0.12,1005.04,999.96,5.08,0.57,-0.57,0.00,1005.07,-0.07,89821.30,38.67,0,0.00,0.00,0.00,0.00
779,452.62,0.54,-0.55,9.54,1.10,-3.78,2.32,1005.29,999.96,5.33,0.54,-0.55,0.01,1005.10,-0.02,89818.52,38.68,0,0.00,0.00,0.00,0.00
780,453.12,0.53,-0.56,9.53,1.71,-2.20,-3.30,1005.22,999.96,5.26,0.53,-0.56,0.00,1005.15,0.02,89819.28,38.68,0,0.00,0.00,0.00,0.00
781,453.63,0.56,-0.57,9.52,6.59,6.71,-1.22,1005.07,999.96,5.11,0.56,-0.57,-0.01,1005.11,-0.02,89820.92,38.68,0,0.00,0.00,0.00,0.00
782,454.13,0.54,-0.55,9.52,0.73,0.00,8.79,1005.12,999.96,5.16,0.54,-0.55,-0.01,1005.09,-0.02,89820.39,38.68,0,0.00,0.00,0.00,0.00
783,454.63,0.54,-0.56,9.52,0.61,-0.61,-2.20,1005.05,999.96,5.09,0.54,-0.56,-0.01,1005.09,-0.02,89821.16,38.69,0,0.00,0.00,0.00,0.00
784,455.14,0.56,-0.55,9.53,-0.73,1.10,7.20,1005.03,999.96,5.08,0.56,-0.55,0.01,1005.01,-0.06,89821.33,38.70,0,0.00,0.00,0.00,0.00
785,455.64,0.57,-0.56,9.52,-0.98,-7.08,1.71,1005.09,999.96,5.13,0.57,-0.56,-0.01,1005.04,-0.02,89820.70,38.70,0,0.00,0.00,0.00,0.00
786,456.15,0.55,-0.56,9.53,2.32,7.08,-2.20,1005.28,999.96,5.33,0.55,-0.56,-0.00,1005.09,0.02,89818.58,38.70,0,0.00,0.00,0.00,0.00
787,456.65,0.55,-0.57,9.53,4.76,4.15,6.47,1004.99,999.96,5.04,0.55,-0.57,0.00,1005.11,0.02,89821.76,38.71,0,0.00,0.00,0.00,0.00
788,457.15,0.54,-0.55,9.53,-1.95,0.00,-0.73,1005.16,999.96,5.20,0.54,-0.55,0.00,1005.16,0.05,89820.01,38.72,0,0.00,0.00,0.00,0.00
789,457.66,0.54,-0.56,9.54,-0.85,-1.59,2.08,1005.42,999.96,5.46,0.54,-0.56,0.01,1005.24,0.09,89817.16,38.72,0,0.00,0.00,0.00,0.00
790,458.16,0.54,-0.55,9.52,-1.95,-1.10,1.71,1005.07,999.96,5.12,0.54,-0.55,-0.01,1005.23,0.05,89820.89,38.73,0,0.00,0.00,0.00,0.00
791,458.67,0.57,-0.59,9.52,4.64,-1.83,4.03,1005.09,999.96,5.14,0.57,-0.59,-0.01,1005.16,-0.01,89820.67,38.73,0,0.00,0.00,0.00,0.00
792,459.17,0.52,-0.55,9.53,1.46,-0.85,2.20,1005.15,999.96,5.19,0.52,-0.55,0.01,1005.09,-0.04,89820.05,38.73,0,0.00,0.00,0.00,0.00
793,459.67,0.56,-0.56,9.53,-5.62,-3.30,3.17,1005.22,999.96,5.26,0.56,-0.56,-0.00,1005.16,0.01,89819.28,38.73,0,0.00,0.00,0.00,0.00
794,460.18,0.55,-0.56,9.52,1.34,0.98,-3.05,1005.19,999.96,5.23,0.55,-0.56,-0.01,1005.18,0.02,89819.61,38.73,0,0.00,0.00,0.00,0.00
795,460.68,0.58,-0.56,9.53,3.42,1.34,-0.61,1005.34,999.96,5.38,0.58,-0.56,0.00,1005.22,0.05,89818.00,38.74,0,0.00,0.00,0.00,0.00
796,461.19,0.55,-0.54,9.53,-1.46,5.49,-1.46,1005.12,999.96,5.16,0.55,-0.54,0.01,1005.19,0.01,89820.44,38.75,0,0.00,0.00,0.00,0.00
797,461.69,0.55,-0.53,9.52,0.12,-3.30,0.12,1005.09,999.96,5.13,0.55,-0.53,-0.01,1005.12,-0.04,89820.73,38.75,0,0.00,0.00,0.00,0.00
798,462.19,0.56,-0.56,9.51,-2.81,3.05,1.95,1005.06,999.96,5.10,0.56,-0.56,-0.02,1005.06,-0.06,89821.01,38.75,0,0.00,0.00,0.00,0.00
799,462.70,0.55,-0.57,9.52,1.34,-3.91,11.72,1005.10,999.96,5.14,0.55,-0.57,-0.01,1005.05,-0.04,89820.60,38.75,0,0.00,0.00,0.00,0.00
800,463.20,0.56,-0.53,9.53,-6.10,-0.37,-1.71,1005.18,999.96,5.22,0.56,-0.53,0.00,1005.15,0.03,89819.71,38.76,0,0.00,0.00,0.00,0.00
801,463.71,0.54,-0.54,9.53,0.37,9.52,5.86,1005.21,999.96,5.25,0.54,-0.54,0.00,1005.19,0.04,89819.41,38.76,0,0.00,0.00,0.00,0.00
802,464.21,0.59,-0.55,9.52,1.34,-2.69,3.30,1005.14,999.96,5.19,0.59,-0.55,-0.01,1005.13,-0.01,89820.12,38.76,0,0.00,0.00,0.00,0.00
803,464.71,0.56,-0.58,9.53,-0.73,1.83,3.54,1004.98,999.96,5.02,0.56,-0.58,0.00,1005.11,-0.02,89821.97,38.76,0,0.00,0.00,0.00,0.00
804,465.22,0.55,-0.55,9.53,-3.66,0.00,1.59,1005.17,999.96,5.21,0.55,-0.55,-0.00,1005.09,-0.02,89819.88,38.76,0,0.00,0.00,0.00,0.00
805,465.72,0.57,-0.55,9.53,-1.46,8.06,-1.22,1005.16,999.96,5.20,0.57,-0.55,0.00,1005.07,-0.02,89819.98,38.77,0,0.00,0.00,0.00,0.00
806,466.23,0.56,-0.57,9.52,6.35,-1.46,-3.17,1005.08,999.96,5.13,0.56,-0.57,-0.01,1005.10,0.00,89820.78,38.78,0,0.00,0.00,0.00,0.00
807,466.73,0.55,-0.57,9.52,-0.73,0.61,1.22,1005.11,999.96,5.15,0.55,-0.57,-0.00,1005.07,-0.02,89820.49,38.78,0,0.00,0.00,0.00,0.00
808,467.23,0.56,-0.55,9.53,-1.46,0.37,4.15,1005.12,999.96,5.16,0.56,-0.55,0.01,1005.09,0.00,89820.41,38.78,0,0.00,0.00,0.00,0.00
809,467.74,0.55,-0.55,9.53,1.22,1.46,3.17,1005.22,999.96,5.26,0.55,-0.55,-0.00,1005.11,0.02,89819.34,38.79,0,0.00,0.00,0.00,0.00
810,468.24,0.57,-0.57,9.52,0.12,-5.74,7.81,1005.21,999.96,5.25,0.57,-0.57,-0.01,1005.14,0.03,89819.41,38.79,0,0.00,0.00,0.00,0.00
811,468.75,0.54,-0.55,9.52,1.22,-2.69,-1.22,1005.25,999.96,5.29,0.54,-0.55,-0.01,1005.19,0.06,89819.02,38.80,0,0.00,0.00,0.00,0.00
812,469.25,0.54,-0.55,9.54,8.79,3.30,1.59,1005.19,999.96,5.23,0.54,-0.55,0.01,1005.19,0.04,89819.61,38.81,0,0.00,0.00,0.00,0.00
813,469.75,0.54,-0.54,9.53,-3.54,-2.69,4.39,1005.01,999.96,5.05,0.54,-0.54,0.01,1005.07,-0.05,89821.59,38.81,0,0.00,0.00,0.00,0.00
814,470.26,0.57,-0.57,9.53,0.00,-2.81,-4.03,1005.15,999.96,5.19,0.57,-0.57,-0.00,1004.99,-0.08,89820.08,38.81,0,0.00,0.00,0.00,0.00
815,470.76,0.56,-0.56,9.52,2.81,6.84,2.93,1005.13,999.96,5.17,0.56,-0.56,-0.01,1005.10,0.01,89820.28,38.81,0,0.00,0.00,0.00,0.00
816,471.27,0.54,-0.58,9.52,5.00,-2.81,-1.71,1005.24,999.96,5.28,0.54,-0.58,-0.01,1005.13,0.03,89819.05,38.81,0,0.00,0.00,0.00,0.00
817,471.77,0.53,-0.56,9.52,5.00,5.62,4.64,1005.15,999.96,5.19,0.53,-0.56,-0.01,1005.17,0.04,89820.06,38.82,0,0.00,0.00,0.00,0.00
818,472.27,0.57,-0.54,9.53,1.34,7.32,1.10,1005.10,999.96,5.14,0.57,-0.54,0.00,1005.13,0.01,89820.63,38.82,0,0.00,0.00,0.00,0.00
819,472.78,0.55,-0.57,9.53,1.22,-0.73,-0.24,1005.14,999.96,5.18,0.55,-0.57,0.01,1005.12,0.00,89820.14,38.83,0,0.00,0.00,0.00,0.00
820,473.28,0.55,-0.54,9.53,-2.20,0.49,-1.95,1005.17,999.96,5.21,0.55,-0.54,-0.00,1005.14,0.02,89819.83,38.83,0,0.00,0.00,0.00,0.00
821,473.79,0.53,-0.53,9.54,3.78,3.30,0.73,1005.19,999.96,5.24,0.53,-0.53,0.01,1005.20,0.05,89819.55,38.84,0,0.00,0.00,0.00,0.00
822,474.29,0.56,-0.57,9.52,-3.42,-3.91,0.98,1005.22,999.96,5.26,0.56,-0.57,-0.01,1005.19,0.03,89819.32,38.84,0,0.00,0.00,0.00,0.00
823,474.79,0.55,-0.54,9.53,4.15,2.20,9.52,1005.28,999.96,5.32,0.55,-0.54,0.00,1005.18,0.02,89818.66,38.85,0,0.00,0.00,0.00,0.00
824,475.30,0.55,-0.54,9.53,-2.93,-3.54,-2.32,1005.19,999.96,5.23,0.55,-0.54,0.00,1005.19,0.01,89819.59,38.86,0,0.00,0.00,0.00,0.00
825,475.80,0.55,-0.56,9.53,0.61,3.91,1.34,1005.13,999.96,5.17,0.55,-0.56,-0.00,1005.19,0.01,89820.27,38.86,0,0.00,0.00,0.00,0.00
826,476.31,0.57,-0.57,9.52,1.95,0.61,4.88,1005.16,999.96,5.21,0.57,-0.57,-0.01,1005.17,-0.00,89819.91,38.87,0,0.00,0.00,0.00,0.00
827,476.81,0.56,-0.55,9.55,2.81,-0.73,1.46,1005.21,999.96,5.25,0.56,-0.55,0.02,1005.13,-0.02,89819.38,38.87,0,0.00,0.00,0.00,0.00
828,477.31,0.55,-0.56,9.52,1.83,-2.81,-1.71,1005.12,999.96,5.17,0.55,-0.56,-0.01,1005.09,-0.04,89820.34,38.87,0,0.00,0.00,0.00,0.00
829,477.82,0.55,-0.55,9.53,-0.49,-5.25,-1.95,1005.19,999.96,5.24,0.55,-0.55,0.01,1005.17,0.02,89819.56,38.87,0,0.00,0.00,0.00,0.00
830,478.32,0.55,-0.58,9.52,2.69,-4.27,2.69,1005.18,999.96,5.22,0.55,-0.58,-0.01,1005.17,0.01,89819.70,38.87,0,0.00,0.00,0.00,0.00
831,478.83,0.54,-0.57,9.52,-2.08,-4.64,-0.49,1005.10,999.96,5.14,0.54,-0.57,-0.01,1005.22,0.04,89820.64,38.88,0,0.00,0.00,0.00,0.00
832,479.33,0.55,-0.54,9.53,-2.08,4.03,0.73,1005.12,999.96,5.16,0.55,-0.54,0.01,1005.17,-0.00,89820.37,38.89,0,0.00,0.00,0.00,0.00
833,479.83,0.56,-0.56,9.52,3.66,-0.61,-5.74,1005.21,999.96,5.26,0.56,-0.56,-0.01,1005.17,0.00,89819.35,38.89,0,0.00,0.00,0.00,0.00
834,480.34,0.55,-0.57,9.54,-1.10,-0.98,-1.71,1005.31,999.96,5.36,0.55,-0.57,0.01,1005.23,0.04,89818.27,38.90,0,0.00,0.00,0.00,0.00
835,480.84,0.54,-0.54,9.53,-0.61,0.73,-0.12,1005.34,999.96,5.38,0.54,-0.54,0.00,1005.32,0.08,89817.97,38.90,0,0.00,0.00,0.00,0.00
836,481.35,0.57,-0.56,9.54,-2.44,2.20,-3.54,1005.27,999.96,5.32,0.57,-0.56,0.01,1005.25,0.02,89818.70,38.90,0,0.00,0.00,0.00,0.00
837,481.85,0.55,-0.56,9.53,2.56,2.44,4.64,1005.45,999.96,5.49,0.55,-0.56,0.00,1005.29,0.04,89816.77,38.90,0,0.00,0.00,0.00,0.00
838,482.35,0.55,-0.57,9.52,2.20,-1.46,-8.18,1005.22,999.96,5.26,0.55,-0.57,-0.01,1005.35,0.07,89819.27,38.90,0,0.00,0.00,0.00,0.00
839,482.86,0.54,-0.54,9.53,3.54,0.00,4.39,1005.37,999.96,5.42,0.54,-0.54,0.01,1005.33,0.04,89817.60,38.91,0,0.00,0.00,0.00,0.00
840,483.36,0.55,-0.57,9.51,4.03,3.05,-0.73,1005.21,999.96,5.26,0.55,-0.57,-0.02,1005.28,-0.01,89819.38,38.91,0,0.00,0.00,0.00,0.00
841,483.87,0.56,-0.57,9.52,-0.12,-4.03,0.00,1005.14,999.96,5.18,0.56,-0.57,-0.01,1005.14,-0.09,89820.17,38.91,0,0.00,0.00,0.00,0.00
842,484.37,0.55,-0.52,9.53,-2.56,-6.23,-3.66,1005.24,999.96,5.28,0.55,-0.52,0.00,1005.13,-0.07,89819.05,38.92,0,0.00,0.00,0.00,0.00
843,484.87,0.57,-0.56,9.53,2.81,0.37,5.00,1005.27,999.96,5.32,0.57,-0.56,0.01,1005.19,-0.01,89818.70,38.92,0,0.00,0.00,0.00,0.00
844,485.38,0.55,-0.54,9.53,1.95,4.64,0.73,1005.37,999.96,5.41,0.55,-0.54,-0.00,1005.28,0.05,89817.62,38.92,0,0.00,0.00,0.00,0.00
845,485.88,0.56,-0.55,9.52,-0.73,-0.12,1.22,1005.44,999.96,5.48,0.56,-0.55,-0.01,1005.35,0.08,89816.89,38.93,0,0.00,0.00,0.00,0.00
846,486.39,0.60,-0.58,9.52,-0.61,1.10,-4.52,1005.44,999.96,5.48,0.60,-0.58,-0.01,1005.36,0.06,89816.96,38.93,0,0.00,0.00,0.00,0.00
847,486.89,0.54,-0.51,9.53,4.76,0.49,8.67,1005.39,999.96,5.44,0.54,-0.51,0.00,1005.31,0.02,89817.42,38.93,0,0.00,0.00,0.00,0.00
848,487.39,0.55,-0.55,9.53,1.34,4.03,-0.61,1005.46,999.96,5.50,0.55,-0.55,0.00,1005.32,0.02,89816.69,38.94,0,0.00,0.00,0.00,0.00
849,487.90,0.54,-0.54,9.53,1.10,1.34,-4.39,1005.36,999.96,5.41,0.54,-0.54,0.00,1005.35,0.03,89817.72,38.94,0,0.00,0.00,0.00,0.00
850,488.40,0.58,-0.58,9.52,-6.71,-1.22,-10.13,1005.55,999.96,5.59,0.58,-0.58,-0.01,1005.42,0.07,89815.69,38.95,0,0.00,0.00,0.00,0.00
851,488.91,0.53,-0.53,9.53,0.00,4.76,4.64,1005.51,999.96,5.55,0.53,-0.53,0.00,1005.47,0.08,89816.15,38.95,0,0.00,0.00,0.00,0.00
852,489.41,0.56,-0.57,9.52,-3.54,-0.12,-5.00,1005.56,999.96,5.60,0.56,-0.57,-0.01,1005.49,0.07,89815.63,38.95,0,0.00,0.00,0.00,0.00
853,489.91,0.53,-0.55,9.53,-0.73,0.61,-5.49,1005.31,999.96,5.36,0.53,-0.55,0.01,1005.42,0.00,89818.26,38.96,0,0.00,0.00,0.00,0.00
854,490.42,0.56,-0.57,9.54,4.64,1.46,5.86,1005.45,999.96,5.49,0.56,-0.57,0.01,1005.36,-0.03,89816.84,38.96,0,0.00,0.00,0.00,0.00
855,490.92,0.57,-0.58,9.53,-2.81,5.37,4.03,1005.38,999.96,5.42,0.57,-0.58,-0.00,1005.34,-0.03,89817.53,38.96,0,0.00,0.00,0.00,0.00
856,491.43,0.53,-0.55,9.53,-3.54,0.00,-7.20,1005.32,999.96,5.37,0.53,-0.55,0.01,1005.36,-0.01,89818.16,38.97,0,0.00,0.00,0.00,0.00
857,491.93,0.52,-0.55,9.54,2.08,-1.46,0.61,1005.41,999.96,5.46,0.52,-0.55,0.01,1005.32,-0.03,89817.17,38.98,0,0.00,0.00,0.00,0.00
858,492.43,0.56,-0.58,9.53,-0.98,-5.86,0.12,1005.27,999.96,5.31,0.56,-0.58,0.01,1005.30,-0.03,89818.80,38.98,0,0.00,0.00,0.00,0.00
859,492.94,0.55,-0.56,9.52,3.17,1.71,12.33,1005.47,999.96,5.51,0.55,-0.56,-0.00,1005.33,-0.00,89816.58,38.98,0,0.00,0.00,0.00,0.00
860,493.44,0.54,-0.55,9.53,0.00,-0.98,-8.42,1005.41,999.96,5.46,0.54,-0.55,0.01,1005.36,0.02,89817.17,38.99,0,0.00,0.00,0.00,0.00
861,493.95,0.51,-0.55,9.53,4.52,4.76,3.91,1005.50,999.96,5.54,0.51,-0.55,-0.00,1005.40,0.04,89816.23,38.99,0,0.00,0.00,0.00,0.00
862,494.45,0.54,-0.57,9.52,5.74,2.56,-2.69,1005.40,999.96,5.45,0.54,-0.57,-0.01,1005.43,0.04,89817.28,38.99,0,0.00,0.00,0.00,0.00
863,494.95,0.54,-0.57,9.53,-7.45,-4.27,1.22,1005.33,999.96,5.37,0.54,-0.57,0.01,1005.40,0.01,89818.06,39.00,0,0.00,0.00,0.00,0.00
864,495.46,0.56,-0.53,9.52,5.86,2.32,6.10,1005.51,999.96,5.55,0.56,-0.53,-0.01,1005.43,0.03,89816.15,39.00,0,0.00,0.00,0.00,0.00
865,495.96,0.54,-0.56,9.54,-0.73,-4.03,-10.62,1005.33,999.96,5.37,0.54,-0.56,0.01,1005.42,0.01,89818.10,39.01,0,0.00,0.00,0.00,0.00
866,496.47,0.57,-0.57,9.53,3.30,4.27,0.85,1005.43,999.96,5.47,0.57,-0.57,0.00,1005.44,0.03,89816.99,39.01,0,0.00,0.00,0.00,0.00
867,496.97,0.55,-0.57,9.53,-3.17,-6.59,0.49,1005.57,999.96,5.61,0.55,-0.57,0.00,1005.48,0.05,89815.47,39.01,0,0.00,0.00,0.00,0.00
868,497.47,0.53,-0.54,9.54,3.54,-3.30,-2.93,1005.32,999.96,5.36,0.53,-0.54,0.01,1005.43,0.00,89818.20,39.02,0,0.00,0.00,0.00,0.00
869,497.98,0.54,-0.57,9.53,-2.44,6.71,4.15,1005.40,999.96,5.44,0.54,-0.57,0.00,1005.41,-0.01,89817.32,39.02,0,0.00,0.00,0.00,0.00
870,498.48,0.54,-0.56,9.52,8.91,-0.49,5.13,1005.34,999.96,5.38,0.54,-0.56,-0.00,1005.39,-0.02,89818.03,39.03,0,0.00,0.00,0.00,0.00
871,498.99,0.56,-0.59,9.53,0.98,4.03,2.69,1005.30,999.96,5.34,0.56,-0.59,-0.00,1005.33,-0.05,89818.43,39.03,0,0.00,0.00,0.00,0.00
872,499.49,0.53,-0.56,9.51,-0.85,-1.95,-0.37,1005.39,999.96,5.43,0.53,-0.56,-0.02,1005.29,-0.06,89817.46,39.03,0,0.00,0.00,0.00,0.00
873,499.99,0.55,-0.55,9.53,-2.44,6.59,7.45,1005.30,999.96,5.34,0.55,-0.55,-0.00,1005.30,-0.03,89818.48,39.03,0,0.00,0.00,0.00,0.00
874,500.50,0.55,-0.58,9.52,2.44,0.61,11.11,1005.33,999.96,5.37,0.55,-0.58,-0.01,1005.29,-0.03,89818.12,39.04,0,0.00,0.00,0.00,0.00
875,501.00,0.54,-0.54,9.53,0.98,1.71,8.91,1005.44,999.96,5.48,0.54,-0.54,-0.00,1005.29,-0.02,89816.95,39.04,0,0.00,0.00,0.00,0.00
876,501.51,0.54,-0.57,9.53,2.69,6.47,-0.37,1005.45,999.96,5.49,0.54,-0.57,0.00,1005.35,0.03,89816.84,39.04,0,0.00,0.00,0.00,0.00
877,502.01,0.53,-0.54,9.53,-3.05,0.12,5.13,1005.57,999.96,5.61,0.53,-0.54,-0.00,1005.48,0.10,89815.48,39.05,0,0.00,0.00,0.00,0.00
878,502.51,0.57,-0.58,9.53,0.61,-3.05,4.39,1005.45,999.96,5.49,0.57,-0.58,-0.00,1005.51,0.09,89816.80,39.05,0,0.00,0.00,0.00,0.00
879,503.02,0.52,-0.51,9.53,3.05,5.86,5.13,1005.34,999.96,5.38,0.52,-0.51,-0.00,1005.46,0.03,89818.01,39.06,0,0.00,0.00,0.00,0.00
880,503.52,0.57,-0.54,9.53,3.66,3.78,-2.81,1005.29,999.96,5.33,0.57,-0.54,0.00,1005.37,-0.04,89818.51,39.06,0,0.00,0.00,0.00,0.00
881,504.03,0.54,-0.56,9.53,1.22,5.00,-2.44,1005.32,999.96,5.36,0.54,-0.56,0.00,1005.26,-0.09,89818.23,39.06,0,0.00,0.00,0.00,0.00
882,504.53,0.57,-0.55,9.53,7.93,4.15,0.61,1005.27,999.96,5.31,0.57,-0.55,-0.00,1005.24,-0.07,89818.74,39.07,0,0.00,0.00,0.00,0.00
883,505.03,0.57,-0.58,9.52,4.64,4.15,-5.86,1005.33,999.96,5.37,0.57,-0.58,-0.01,1005.25,-0.05,89818.13,39.08,0,0.00,0.00,0.00,0.00
884,505.54,0.54,-0.52,9.53,2.32,0.00,-2.08,1005.31,999.96,5.35,0.54,-0.52,0.00,1005.23,-0.04,89818.34,39.08,0,0.00,0.00,0.00,0.00
885,506.04,0.56,-0.60,9.52,0.98,2.20,7.57,1005.28,999.96,5.32,0.56,-0.60,-0.01,1005.21,-0.04,89818.60,39.08,0,0.00,0.00,0.00,0.00
886,506.55,0.53,-0.53,9.54,0.37,4.52,-3.42,1005.39,999.96,5.43,0.53,-0.53,0.01,1005.29,0.03,89817.43,39.08,0,0.00,0.00,0.00,0.00
887,507.05,0.54,-0.56,9.53,-0.85,-2.81,-1.22,1005.32,999.96,5.36,0.54,-0.56,0.00,1005.27,0.01,89818.20,39.08,0,0.00,0.00,0.00,0.00
888,507.55,0.55,-0.54,9.54,-4.52,-3.42,-4.52,1005.53,999.96,5.57,0.55,-0.54,0.01,1005.40,0.09,89815.98,39.09,0,0.00,0.00,0.00,0.00
889,508.06,0.56,-0.54,9.53,6.23,-0.12,-0.61,1005.54,999.96,5.59,0.56,-0.54,0.00,1005.46,0.10,89815.77,39.10,0,0.00,0.00,0.00,0.00
890,508.56,0.54,-0.55,9.53,4.88,-1.95,-8.42,1005.32,999.96,5.36,0.54,-0.55,0.00,1005.45,0.06,89818.17,39.11,0,0.00,0.00,0.00,0.00
891,509.07,0.55,-0.55,9.53,-9.16,-6.96,-3.78,1005.42,999.96,5.46,0.55,-0.55,-0.00,1005.44,0.03,89817.10,39.11,0,0.00,0.00,0.00,0.00
892,509.57,0.56,-0.54,9.52,-2.93,2.69,2.20,1005.51,999.96,5.55,0.56,-0.54,-0.01,1005.48,0.05,89816.15,39.11,0,0.00,0.00,0.00,0.00
893,510.07,0.55,-0.55,9.53,3.78,0.73,11.72,1005.72,999.96,5.77,0.55,-0.55,0.00,1005.58,0.10,89813.81,39.10,0,0.00,0.00,0.00,0.00
894,510.58,0.53,-0.55,9.53,2.32,-1.10,3.91,1005.56,999.96,5.61,0.53,-0.55,-0.00,1005.61,0.09,89815.55,39.10,0,0.00,0.00,0.00,0.00
895,511.08,0.53,-0.52,9.52,4.88,2.56,-0.98,1005.53,999.96,5.57,0.53,-0.52,-0.01,1005.54,0.01,89815.91,39.11,0,0.00,0.00,0.00,0.00
896,511.59,0.59,-0.63,9.52,-6.35,-7.57,1.95,1005.51,999.96,5.55,0.59,-0.63,-0.01,1005.43,-0.05,89816.16,39.11,0,0.00,0.00,0.00,0.00
897,512.09,0.54,-0.53,9.55,-1.34,1.83,4.03,1005.43,999.96,5.47,0.54,-0.53,0.02,1005.36,-0.08,89816.98,39.12,0,0.00,0.00,0.00,0.00
898,512.59,0.55,-0.57,9.53,1.71,-5.62,4.76,1005.38,999.96,5.42,0.55,-0.57,-0.00,1005.34,-0.06,89817.51,39.12,0,0.00,0.00,0.00,0.00
899,513.10,0.53,-0.55,9.53,2.08,-7.32,10.38,1005.38,999.96,5.42,0.53,-0.55,0.01,1005.34,-0.05,89817.54,39.12,0,0.00,0.00,0.00,0.00
900,513.60,0.56,-0.56,9.51,-0.37,-1.59,5.00,1005.36,999.96,5.41,0.56,-0.56,-0.02,1005.32,-0.04,89817.73,39.13,0,0.00,0.00,0.00,0.00
901,514.11,0.55,-0.59,9.52,4.88,1.83,6.47,1005.44,999.96,5.48,0.55,-0.59,-0.01,1005.31,-0.03,89816.88,39.13,0,0.00,0.00,0.00,0.00
902,514.61,0.52,-0.52,9.53,-1.10,0.37,5.49,1005.47,999.96,5.51,0.52,-0.52,0.00,1005.35,0.00,89816.56,39.14,0,0.00,0.00,0.00,0.00
903,515.11,0.54,-0.56,9.52,-4.27,-0.49,2.69,1005.50,999.96,5.55,0.54,-0.56,-0.00,1005.39,0.03,89816.19,39.15,0,0.00,0.00,0.00,0.00
904,515.62,0.56,-0.58,9.53,2.20,-4.27,4.52,1005.46,999.96,5.50,0.56,-0.58,-0.00,1005.42,0.03,89816.69,39.15,0,0.00,0.00,0.00,0.00
905,516.12,0.55,-0.57,9.54,-3.91,-2.93,9.89,1005.27,999.96,5.31,0.55,-0.57,0.01,1005.37,-0.01,89818.74,39.15,0,0.00,0.00,0.00,0.00
906,516.63,0.54,-0.52,9.53,2.20,4.15,0.49,1005.45,999.96,5.49,0.54,-0.52,-0.00,1005.36,-0.01,89816.80,39.15,0,0.00,0.00,0.00,0.00
907,517.13,0.53,-0.55,9.52,-3.30,-1.59,-5.00,1005.55,999.96,5.59,0.53,-0.55,-0.00,1005.41,0.03,89815.74,39.15,0,0.00,0.00,0.00,0.00
908,517.63,0.57,-0.58,9.53,1.34,6.10,3.42,1005.57,999.96,5.61,0.57,-0.58,0.00,1005.43,0.03,89815.46,39.16,0,0.00,0.00,0.00,0.00
909,518.14,0.55,-0.55,9.52,-1.34,1.59,4.76,1005.32,999.96,5.36,0.55,-0.55,-0.01,1005.42,0.01,89818.25,39.17,0,0.00,0.00,0.00,0.00
910,518.64,0.52,-0.57,9.52,3.42,0.49,2.81,1005.54,999.96,5.59,0.52,-0.57,-0.01,1005.47,0.04,89815.76,39.17,0,0.00,0.00,0.00,0.00
911,519.15,0.55,-0.53,9.54,-1.22,-4.52,-8.06,1005.45,999.96,5.49,0.55,-0.53,0.01,1005.45,0.02,89816.80,39.17,0,0.00,0.00,0.00,0.00
912,519.65,0.53,-0.57,9.52,-2.32,4.03,-1.59,1005.41,999.96,5.46,0.53,-0.57,-0.01,1005.45,0.01,89817.17,39.17,0,0.00,0.00,0.00,0.00
913,520.15,0.55,-0.54,9.52,-2.20,-4.03,2.44,1005.55,999.96,5.60,0.55,-0.54,-0.01,1005.44,0.00,89815.64,39.18,0,0.00,0.00,0.00,0.00
914,520.66,0.52,-0.54,9.53,-4.39,4.03,-2.81,1005.54,999.96,5.58,0.52,-0.54,0.00,1005.47,0.03,89815.79,39.18,0,0.00,0.00,0.00,0.00
915,521.16,0.55,-0.54,9.53,-1.83,4.64,6.71,1005.51,999.96,5.55,0.55,-0.54,0.00,1005.49,0.03,89816.13,39.19,0,0.00,0.00,0.00,0.00
916,521.67,0.55,-0.57,9.52,-3.78,-2.44,-3.66,1005.39,999.96,5.44,0.55,-0.57,-0.01,1005.45,-0.01,89817.40,39.19,0,0.00,0.00,0.00,0.00
917,522.17,0.56,-0.54,9.53,4.03,4.64,4.88,1005.50,999.96,5.54,0.56,-0.54,0.00,1005.40,-0.03,89816.26,39.19,0,0.00,0.00,0.00,0.00
918,522.67,0.53,-0.53,9.53,-2.56,0.24,-1.22,1005.36,999.96,5.41,0.53,-0.53,0.00,1005.38,-0.03,89817.72,39.20,0,0.00,0.00,0.00,0.00
