packet_id,time_s,accel_x_mps2,accel_y_mps2,accel_z_mps2,acc_altitude_m,baro_altitude_m,pressure_pascals,temperature_c,gps_altitude_m,current_state,motor_target_degrees,motor_actual_degrees,motor_commanded_power,flap_target_degrees,fix_status
0,60.00,-0.64,-0.30,9.72,0.00,88.71,100263.95,24.76,0.00,0,0.00,0.00,-0.00,0.00,0
1,61.01,-0.65,-0.30,9.72,0.00,88.80,100262.90,24.78,0.00,0,0.00,0.00,-0.00,0.00,0
2,62.02,-0.65,-0.30,9.71,0.00,88.87,100262.07,24.78,0.00,0,0.00,0.00,-0.00,0.00,0
3,63.03,-0.65,-0.30,9.72,0.00,88.77,100263.31,24.79,0.00,0,0.00,0.00,-0.00,0.00,0
4,64.04,-0.65,-0.30,9.72,0.00,88.84,100262.49,24.79,0.00,0,0.00,0.00,-0.00,0.00,0
5,65.05,-0.64,-0.29,9.72,0.00,88.79,100263.09,24.79,0.00,0,0.00,0.00,-0.00,0.00,0
6,66.06,-0.65,-0.29,9.72,0.00,88.71,100264.03,24.82,0.00,0,0.00,0.00,-0.00,0.00,0
7,67.07,-0.64,-0.30,9.72,0.00,88.82,100262.70,24.80,0.00,0,0.00,0.00,-0.00,0.00,0
8,68.08,-0.64,-0.30,9.71,0.00,88.75,100263.51,24.80,0.00,0,0.00,0.00,-0.00,0.00,0
9,69.09,-0.65,-0.29,9.72,0.00,88.69,100264.27,24.80,0.00,0,0.00,0.00,-0.00,0.00,0
10,70.10,-0.64,-0.29,9.72,0.00,88.78,100263.14,24.83,0.00,0,0.00,0.00,-0.00,0.00,0
11,71.11,-0.79,-0.27,9.69,0.00,88.75,100263.55,24.86,0.00,0,0.00,0.00,-0.00,0.00,0
12,72.12,-0.63,-0.25,9.74,0.00,88.53,100266.17,24.90,0.00,0,0.00,0.00,-0.00,0.00,0
13,73.13,-0.62,0.37,9.75,0.00,88.43,100267.34,24.94,0.00,0,0.00,0.00,-0.00,0.00,0
14,73.35,-0.24,0.90,14.53,0.00,88.38,100267.92,24.95,0.00,1,0.00,0.00,-0.00,0.00,0
15,73.46,-0.66,1.21,16.96,0.04,88.47,100266.91,24.95,0.00,1,0.00,0.00,-0.00,0.00,0
16,73.57,-1.44,1.02,14.18,0.18,88.67,100264.50,24.95,0.00,1,0.00,0.00,-0.00,0.00,0
17,73.68,-0.44,0.37,3.63,0.35,88.90,100261.72,24.94,0.00,1,0.00,0.00,-0.00,0.00,0
18,73.79,0.51,-0.20,-0.22,0.41,89.02,100260.30,24.93,0.00,1,0.00,0.00,-0.00,0.00,0
19,73.90,0.33,1.31,8.92,0.36,88.98,100260.73,24.92,0.00,1,0.00,0.00,-0.00,0.00,0
20,74.01,0.52,1.61,11.53,0.30,89.02,100260.25,24.92,0.00,1,0.00,0.00,-0.00,0.00,0
21,74.12,0.47,0.99,11.51,0.25,88.89,100261.82,24.91,0.00,1,0.00,0.00,-0.00,0.00,0
22,74.23,0.60,0.39,10.70,0.22,88.90,100261.77,24.91,0.00,1,0.00,0.00,-0.00,0.00,0
23,74.34,0.39,0.20,10.05,0.20,88.98,100260.80,24.91,0.00,1,0.00,0.00,-0.00,0.00,0
24,74.45,-0.02,0.38,9.15,0.18,88.92,100261.48,24.92,0.00,1,0.00,0.00,-0.00,0.00,0
25,74.55,0.10,0.33,9.44,0.15,88.92,100261.46,24.92,0.00,1,0.00,0.00,-0.00,0.00,0
26,74.66,0.14,0.26,9.92,0.12,88.89,100261.87,24.92,0.00,1,0.00,0.00,-0.00,0.00,0
27,74.77,0.03,0.37,9.96,0.09,88.85,100262.38,24.92,0.00,1,0.00,0.00,-0.00,0.00,0
28,74.88,0.06,0.67,9.81,0.07,88.83,100262.59,24.93,0.00,1,0.00,0.00,-0.00,0.00,0
29,74.98,0.10,0.77,9.68,0.04,88.76,100263.43,24.93,0.00,1,0.00,0.00,-0.00,0.00,0
30,75.09,-0.14,0.70,9.83,0.01,88.76,100263.36,24.93,0.00,1,0.00,0.00,-0.00,0.00,0
31,75.20,-0.61,0.13,10.48,-0.02,88.67,100264.46,24.94,0.00,1,0.00,0.00,-0.00,0.00,0
32,75.30,-0.72,-0.23,10.83,-0.04,88.69,100264.20,24.94,0.00,1,0.00,0.00,-0.00,0.00,0
33,75.41,-0.47,-0.22,10.30,-0.05,88.69,100264.27,24.95,0.00,1,0.00,0.00,-0.00,0.00,0
34,75.52,-0.40,-0.13,9.65,-0.05,88.71,100264.03,24.95,0.00,1,0.00,0.00,-0.00,0.00,0
35,75.63,-0.43,-0.20,9.47,-0.06,88.62,100265.12,24.96,0.00,1,0.00,0.00,-0.00,0.00,0
36,75.73,-0.53,-0.27,9.69,-0.06,88.58,100265.50,24.96,0.00,1,0.00,0.00,-0.00,0.00,0
37,75.84,-0.80,-0.34,9.81,-0.08,88.57,100265.63,24.97,0.00,1,0.00,0.00,-0.00,0.00,0
38,75.95,-0.73,-0.34,9.33,-0.09,88.60,100265.37,24.98,0.00,1,0.00,0.00,-0.00,0.00,0
39,76.05,-0.78,-0.26,9.73,-0.10,88.60,100265.37,24.98,0.00,1,0.00,0.00,-0.00,0.00,0
40,76.16,-1.80,0.82,16.96,-0.11,88.60,100265.38,24.98,0.00,1,0.00,0.00,-0.00,0.00,0
41,76.27,-3.71,2.46,21.49,-0.03,88.70,100264.12,24.98,0.00,1,0.00,0.00,-0.00,0.00,0
42,76.38,-2.66,2.94,5.86,0.15,88.95,100261.13,24.98,0.00,1,0.00,0.00,-0.00,0.00,0
43,76.48,0.43,-1.18,-2.86,0.27,89.05,100259.95,24.97,0.00,1,0.00,0.00,-0.00,0.00,0
44,76.59,1.22,-0.01,6.23,0.29,89.13,100259.00,24.97,0.00,1,0.00,0.00,-0.00,0.00,0
45,76.70,0.75,0.96,10.24,0.26,89.05,100259.98,24.97,0.00,1,0.00,0.00,-0.00,0.00,0
46,76.80,0.18,0.79,10.60,0.24,89.07,100259.68,24.97,0.00,1,0.00,0.00,-0.00,0.00,0
47,76.91,0.20,0.50,10.25,0.23,89.01,100260.39,24.97,0.00,1,0.00,0.00,-0.00,0.00,0
48,77.02,0.45,0.00,9.36,0.22,88.95,100261.11,24.98,0.00,1,0.00,0.00,-0.00,0.00,0
49,77.13,0.55,0.24,9.83,0.21,88.91,100261.62,24.98,0.00,1,0.00,0.00,-0.00,0.00,0
50,77.23,0.47,0.31,9.70,0.19,88.98,100260.73,24.98,0.00,1,0.00,0.00,-0.00,0.00,0
51,77.34,0.14,0.33,9.73,0.17,88.87,100262.10,24.98,0.00,1,0.00,0.00,-0.00,0.00,0
52,77.45,-0.13,0.34,9.97,0.16,88.96,100261.05,24.98,0.00,1,0.00,0.00,-0.00,0.00,0
53,77.55,-0.17,0.35,10.04,0.14,88.87,100262.05,24.98,0.00,1,0.00,0.00,-0.00,0.00,0
54,77.66,-0.38,0.17,10.05,0.13,88.93,100261.44,24.98,0.00,1,0.00,0.00,-0.00,0.00,0
55,77.77,-0.39,0.00,10.23,0.12,88.89,100261.83,24.99,0.00,1,0.00,0.00,-0.00,0.00,0
56,77.88,-0.42,0.08,10.51,0.12,88.76,100263.41,24.99,0.00,1,0.00,0.00,-0.00,0.00,0
57,77.98,-1.34,-0.05,16.00,0.13,88.81,100262.81,24.99,0.00,1,0.00,0.00,-0.00,0.00,0
58,78.09,-2.91,0.20,21.75,0.23,88.73,100263.74,24.98,0.00,1,0.00,0.00,-0.00,0.00,0
59,78.20,-2.69,0.95,11.53,0.45,88.98,100260.77,24.99,0.00,1,0.00,0.00,-0.00,0.00,0
60,78.30,0.44,0.39,-2.96,0.63,89.13,100259.02,24.98,0.00,1,0.00,0.00,-0.00,0.00,0
61,78.41,1.03,-0.03,-2.61,0.69,89.28,100257.20,24.98,0.00,1,0.00,0.00,-0.00,0.00,0
62,78.52,0.51,0.71,5.62,0.62,89.32,100256.67,24.98,0.00,1,0.00,0.00,-0.00,0.00,0
63,78.63,0.06,1.81,13.03,0.52,89.04,100260.05,24.98,0.00,1,0.00,0.00,-0.00,0.00,0
64,78.73,0.10,1.57,13.03,0.46,88.96,100261.03,24.98,0.00,1,0.00,0.00,-0.00,0.00,0
65,78.84,0.25,0.86,10.95,0.42,89.06,100259.89,24.98,0.00,1,0.00,0.00,-0.00,0.00,0
66,78.95,0.25,0.56,10.14,0.41,89.03,100260.18,24.98,0.00,1,0.00,0.00,-0.00,0.00,0
67,79.05,-0.01,0.41,10.23,0.39,89.01,100260.45,24.98,0.00,1,0.00,0.00,-0.00,0.00,0
68,79.16,-0.17,0.40,9.95,0.38,88.92,100261.49,24.99,0.00,1,0.00,0.00,-0.00,0.00,0
69,79.27,-0.20,0.38,9.07,0.37,88.99,100260.62,24.99,0.00,1,0.00,0.00,-0.00,0.00,0
70,79.38,-0.17,0.57,7.36,0.34,88.93,100261.40,25.00,0.00,1,0.00,0.00,-0.00,0.00,0
71,79.48,-0.40,0.97,11.34,0.29,88.93,100261.32,25.00,0.00,1,0.00,0.00,-0.00,0.00,0
72,79.59,-2.35,1.46,21.86,0.27,88.78,100263.23,25.00,0.00,1,0.00,0.00,-0.00,0.00,0
73,79.70,-3.80,0.54,25.19,0.39,88.82,100262.73,25.00,0.00,1,0.00,0.00,-0.00,0.00,0
74,79.80,-1.07,-1.00,13.18,0.64,89.05,100260.00,24.99,0.00,1,0.00,0.00,-0.00,0.00,0
75,79.91,1.38,0.20,-0.36,0.95,89.35,100256.39,24.98,0.00,1,0.00,0.00,-0.00,0.00,0
76,80.02,3.12,1.03,-6.72,1.12,89.36,100256.30,24.97,0.00,1,0.00,0.00,-0.00,0.00,0
77,80.13,1.63,0.41,-4.72,1.10,89.52,100254.37,24.97,0.00,1,0.00,0.00,-0.00,0.00,0
78,80.23,-1.34,0.41,8.38,0.96,89.35,100256.41,24.97,0.00,1,0.00,0.00,-0.00,0.00,0
79,80.34,-1.10,1.59,17.58,0.79,89.16,100258.69,24.97,0.00,1,0.00,0.00,-0.00,0.00,0
80,80.45,-0.43,2.53,19.95,0.73,89.06,100259.89,24.96,0.00,1,0.00,0.00,-0.00,0.00,0
81,80.55,-0.42,2.65,18.09,0.78,88.89,100261.89,24.96,0.00,1,0.00,0.00,-0.00,0.00,0
82,80.66,-0.61,1.30,9.62,0.90,88.95,100261.09,24.96,0.00,1,0.00,0.00,-0.00,0.00,0
83,80.77,0.00,0.18,5.98,1.02,89.00,100260.59,24.96,0.00,1,0.00,0.00,-0.00,0.00,0
84,80.88,0.04,0.13,6.64,1.10,89.04,100260.04,24.95,0.00,1,0.00,0.00,-0.00,0.00,0
85,80.98,-0.07,0.46,9.78,1.15,89.06,100259.89,24.95,0.00,1,0.00,0.00,-0.00,0.00,0
86,81.09,-0.16,0.57,10.71,1.19,89.07,100259.71,24.95,0.00,1,0.00,0.00,-0.00,0.00,0
87,81.20,0.08,0.54,9.75,1.24,89.07,100259.75,24.96,0.00,1,0.00,0.00,-0.00,0.00,0
88,81.30,0.18,0.57,9.09,1.28,89.07,100259.75,24.96,0.00,1,0.00,0.00,-0.00,0.00,0
89,81.41,0.34,0.54,9.61,1.32,89.05,100259.96,24.97,0.00,1,0.00,0.00,-0.00,0.00,0
90,81.52,0.41,0.32,10.30,1.36,89.08,100259.58,24.98,0.00,1,0.00,0.00,-0.00,0.00,0
91,81.63,-0.10,0.60,10.07,1.41,89.08,100259.57,24.99,0.00,1,0.00,0.00,-0.00,0.00,0
92,81.73,-0.34,0.80,9.37,1.45,89.08,100259.62,25.00,0.00,1,0.00,0.00,-0.00,0.00,0
93,81.84,-0.17,0.65,9.36,1.49,89.03,100260.16,25.01,0.00,1,0.00,0.00,-0.00,0.00,0
94,81.95,-0.02,0.62,9.68,1.52,88.97,100260.89,25.01,0.00,1,0.00,0.00,-0.00,0.00,0
95,82.05,-0.01,0.95,9.81,1.56,89.08,100259.62,25.02,0.00,1,0.00,0.00,-0.00,0.00,0
96,82.16,0.09,1.01,10.12,1.59,89.13,100258.94,25.02,0.00,1,0.00,0.00,-0.00,0.00,0
97,82.27,0.01,1.02,9.71,1.63,89.11,100259.23,25.03,0.00,1,0.00,0.00,-0.00,0.00,0
98,82.38,-0.04,0.89,9.41,1.66,89.23,100257.80,25.04,0.00,1,0.00,0.00,-0.00,0.00,0
99,82.48,-0.19,0.80,9.54,1.69,89.13,100259.05,25.04,0.00,1,0.00,0.00,-0.00,0.00,0
100,82.59,-0.02,0.61,9.37,1.72,89.09,100259.41,25.05,0.00,1,0.00,0.00,-0.00,0.00,0
101,82.70,0.08,0.15,10.46,1.74,89.05,100259.97,25.05,0.00,1,0.00,0.00,-0.00,0.00,0
102,82.80,0.08,0.15,10.46,1.77,89.17,100258.52,25.05,0.00,1,0.00,0.00,-0.00,0.00,0
103,82.91,-0.11,0.43,9.04,1.80,89.13,100259.01,25.05,0.00,1,0.00,0.00,-0.00,0.00,0
104,83.02,-0.32,0.58,8.57,1.82,89.01,100260.43,25.06,0.00,1,0.00,0.00,-0.00,0.00,0
105,83.13,-1.29,0.91,8.91,1.82,88.93,100261.32,25.05,0.00,1,0.00,0.00,-0.00,0.00,0
106,83.23,-1.78,1.18,9.71,1.82,88.96,100261.02,25.05,0.00,1,0.00,0.00,-0.00,0.00,0
107,83.34,-1.21,1.57,10.14,1.82,88.95,100261.19,25.05,0.00,1,0.00,0.00,-0.00,0.00,0
108,83.45,0.48,0.74,7.23,1.82,88.79,100263.02,25.05,0.00,1,0.00,0.00,-0.00,0.00,0
109,83.55,0.06,0.57,6.87,1.80,88.75,100263.50,25.05,0.00,1,0.00,0.00,-0.00,0.00,0
110,83.66,-1.40,0.87,14.21,1.76,88.61,100265.20,25.05,0.00,1,0.00,0.00,-0.00,0.00,0
111,83.77,-3.04,2.44,21.50,1.77,88.55,100265.88,25.06,0.00,1,0.00,0.00,-0.00,0.00,0
112,83.88,-4.95,3.15,24.82,1.93,88.52,100266.26,25.06,0.00,1,0.00,0.00,-0.00,0.00,0
113,83.98,-2.72,0.31,17.96,2.22,88.86,100262.21,25.05,0.00,1,0.00,0.00,-0.00,0.00,0
114,84.09,1.19,-0.96,1.44,2.59,89.42,100255.58,25.03,0.00,1,0.00,0.00,-0.00,0.00,0
115,84.20,2.10,0.57,-5.06,2.85,89.66,100252.68,25.02,0.00,1,0.00,0.00,-0.00,0.00,0
116,84.30,0.36,1.49,-5.16,2.92,89.76,100251.56,25.00,0.00,1,0.00,0.00,-0.00,0.00,0
117,84.41,-0.26,1.05,-6.43,2.83,89.88,100250.09,25.00,0.00,1,0.00,0.00,-0.00,0.00,0
118,84.52,-1.35,-0.12,-5.36,2.55,89.79,100251.11,24.99,0.00,1,0.00,0.00,-0.00,0.00,0
119,84.63,-2.16,0.99,16.94,2.15,89.34,100256.45,24.98,0.00,1,0.00,0.00,-0.00,0.00,0
120,84.73,-2.60,1.27,25.79,1.87,88.93,100261.32,24.97,0.00,1,0.00,0.00,-0.00,0.00,0
121,84.84,-1.98,0.31,25.39,1.74,88.62,100265.05,24.96,0.00,1,0.00,0.00,-0.00,0.00,0
122,84.95,-2.07,-0.25,19.16,1.78,88.52,100266.25,24.96,0.00,1,0.00,0.00,-0.00,0.00,0
123,85.05,-2.59,-0.56,11.77,1.90,88.52,100266.32,24.96,0.00,1,0.00,0.00,-0.00,0.00,0
124,85.16,-1.82,-0.37,7.02,2.05,88.68,100264.34,24.96,0.00,1,0.00,0.00,-0.00,0.00,0
125,85.27,0.32,-0.29,2.54,2.15,88.86,100262.25,24.96,0.00,1,0.00,0.00,-0.00,0.00,0
126,85.38,0.90,-0.01,5.04,2.17,88.97,100260.92,24.96,0.00,1,0.00,0.00,-0.00,0.00,0
127,85.48,0.35,0.28,8.17,2.13,88.89,100261.90,24.97,0.00,1,0.00,0.00,-0.00,0.00,0
128,85.59,-0.46,0.76,10.48,2.08,88.89,100261.88,24.97,0.00,1,0.00,0.00,-0.00,0.00,0
129,85.70,-0.80,0.64,10.24,2.04,88.82,100262.67,24.99,0.00,1,0.00,0.00,-0.00,0.00,0
130,85.80,-1.05,0.32,10.17,2.00,88.92,100261.48,25.00,0.00,1,0.00,0.00,-0.00,0.00,0
131,85.91,-1.05,0.40,9.78,1.97,88.88,100261.93,25.01,0.00,1,0.00,0.00,-0.00,0.00,0
132,86.02,-1.14,1.03,9.00,1.93,88.94,100261.23,25.02,0.00,1,0.00,0.00,-0.00,0.00,0
133,86.13,-1.50,1.31,9.06,1.88,88.93,100261.38,25.03,0.00,1,0.00,0.00,-0.00,0.00,0
134,86.23,-1.63,1.07,10.08,1.83,88.97,100260.95,25.04,0.00,1,0.00,0.00,-0.00,0.00,0
135,86.34,-0.80,0.44,10.49,1.79,88.98,100260.75,25.05,0.00,1,0.00,0.00,-0.00,0.00,0
136,86.45,-0.66,0.72,9.72,1.75,89.04,100260.03,25.05,0.00,1,0.00,0.00,-0.00,0.00,0
137,86.55,-0.87,1.21,9.13,1.71,89.06,100259.84,25.06,0.00,1,0.00,0.00,-0.00,0.00,0
138,86.66,-0.67,1.35,9.45,1.66,89.07,100259.69,25.06,0.00,1,0.00,0.00,-0.00,0.00,0
139,86.77,-0.26,1.15,9.68,1.61,88.92,100261.50,25.07,0.00,1,0.00,0.00,-0.00,0.00,0
140,86.88,0.05,0.57,9.81,1.56,88.92,100261.53,25.08,0.00,1,0.00,0.00,-0.00,0.00,0
141,86.98,0.17,0.33,10.30,1.51,89.01,100260.43,25.08,0.00,1,0.00,0.00,-0.00,0.00,0
142,87.09,0.31,0.20,10.07,1.47,89.07,100259.70,25.09,0.00,1,0.00,0.00,-0.00,0.00,0
143,87.20,0.77,0.10,9.29,1.42,89.17,100258.54,25.09,0.00,1,0.00,0.00,-0.00,0.00,0
144,87.30,0.83,0.17,8.88,1.37,89.18,100258.45,25.09,0.00,1,0.00,0.00,-0.00,0.00,0
145,87.41,0.68,0.32,8.99,1.31,89.17,100258.58,25.09,0.00,1,0.00,0.00,-0.00,0.00,0
146,87.52,0.18,0.64,9.12,1.24,89.10,100259.40,25.10,0.00,1,0.00,0.00,-0.00,0.00,0
147,87.63,0.19,0.79,8.50,1.16,88.99,100260.69,25.10,0.00,1,0.00,0.00,-0.00,0.00,0
148,87.73,-0.33,0.76,7.18,1.07,88.87,100262.11,25.10,0.00,1,0.00,0.00,-0.00,0.00,0
149,87.84,-0.82,0.70,6.68,0.94,88.84,100262.40,25.11,0.00,1,0.00,0.00,-0.00,0.00,0
150,87.95,-1.82,0.90,10.89,0.78,88.89,100261.84,25.11,0.00,1,0.00,0.00,-0.00,0.00,0
151,88.05,-2.92,1.24,15.21,0.64,88.80,100262.88,25.10,0.00,1,0.00,0.00,-0.00,0.00,0
152,88.16,-5.72,1.07,25.03,0.57,88.74,100263.60,25.10,0.00,1,0.00,0.00,-0.00,0.00,0
153,88.27,-4.07,2.54,14.44,0.69,88.98,100260.80,25.08,0.00,1,0.00,0.00,-0.00,0.00,0
154,88.38,-1.47,2.60,-6.92,0.86,89.34,100256.45,25.07,0.00,1,0.00,0.00,-0.00,0.00,0
155,88.48,1.15,0.80,-15.32,0.85,89.63,100253.09,25.05,0.00,2,-0.00,0.00,0.00,0.00,0
156,88.59,-0.57,2.09,-3.98,0.58,89.55,100253.98,25.04,0.00,2,-0.00,0.00,0.00,0.00,0
157,88.70,-4.95,3.10,17.07,0.19,89.31,100256.89,25.03,0.00,2,-0.00,0.00,0.00,0.00,0
158,88.80,-3.85,2.21,20.28,-0.10,89.10,100259.32,25.03,0.00,2,-0.00,0.00,0.00,0.00,0
159,88.91,-1.36,0.90,12.79,-0.31,89.07,100259.70,25.03,0.00,2,-0.00,0.00,0.00,0.00,0
160,89.02,-1.18,0.59,9.03,-0.50,89.01,100260.46,25.03,0.00,2,-0.00,0.00,0.00,0.00,0
161,89.13,-1.47,0.58,9.57,-0.69,88.96,100261.02,25.04,0.00,2,-3003.73,0.00,0.00,40.88,0
162,89.23,-1.29,0.41,9.86,-0.87,89.11,100259.22,25.05,0.00,2,-0.00,-5.51,-0.10,0.00,0
163,89.34,-0.46,0.48,9.55,-1.07,89.09,100259.48,25.06,0.00,2,-0.00,-5.40,-0.10,0.00,0
164,89.45,-0.06,0.87,9.55,-1.27,89.10,100259.35,25.08,0.00,2,-0.00,-5.40,-0.10,0.00,0
165,89.55,-0.20,0.60,9.96,-1.45,89.13,100258.98,25.08,0.00,2,-0.00,-5.29,-0.10,0.00,0
166,89.66,-0.48,0.08,9.74,-1.65,89.19,100258.27,25.09,0.00,2,-0.00,-5.18,-0.10,0.00,0
167,89.77,-0.27,0.00,9.44,-1.85,89.13,100258.93,25.10,0.00,2,-0.00,-5.18,-0.10,0.00,0
168,89.88,0.37,0.35,9.63,-2.06,89.06,100259.80,25.11,0.00,2,-0.00,-5.18,-0.10,0.00,0
169,89.98,0.19,0.62,9.93,-2.25,89.04,100260.09,25.12,0.00,2,-0.00,-5.18,-0.10,0.00,0
170,90.09,-0.14,0.80,10.07,-2.46,89.12,100259.06,25.12,0.00,2,-0.00,-5.18,-0.10,0.00,0
171,90.20,-0.34,0.90,9.97,-2.66,89.09,100259.52,25.13,0.00,2,-0.00,-5.18,-0.10,0.00,0
172,90.30,-0.40,1.00,9.91,-2.85,88.96,100261.07,25.13,0.00,2,-0.00,-5.18,-0.10,0.00,0
173,90.41,-0.86,1.63,9.12,-3.05,89.00,100260.58,25.14,0.00,2,-0.00,-5.18,-0.10,0.00,0
174,90.52,-0.68,1.55,9.22,-3.26,88.94,100261.30,25.15,0.00,2,-0.00,-5.18,-0.10,0.00,0
175,90.63,-0.24,1.36,9.64,-3.48,88.95,100261.18,25.16,0.00,2,-0.00,-5.18,-0.10,0.00,0
176,90.73,-0.04,1.32,9.73,-3.68,88.96,100260.99,25.16,0.00,2,-0.00,-5.18,-0.10,0.00,0
177,90.84,0.06,1.54,9.06,-3.90,89.10,100259.38,25.16,0.00,2,-0.00,-6.08,-0.12,0.00,0
178,90.95,0.16,1.70,8.09,-4.13,89.06,100259.86,25.16,0.00,2,-0.00,-5.40,-0.10,0.00,0
179,91.05,-0.21,1.14,11.36,-4.35,89.01,100260.39,25.15,0.00,2,-0.00,-5.40,-0.10,0.00,0
180,91.16,-0.83,0.73,13.63,-4.58,89.01,100260.43,25.15,0.00,2,-0.00,-5.29,-0.10,0.00,0
181,91.27,-0.91,0.12,11.47,-4.76,89.03,100260.14,25.15,0.00,2,-0.00,-5.06,-0.10,0.00,0
182,91.38,-0.52,0.01,8.20,-4.93,89.14,100258.90,25.15,0.00,2,-0.00,-5.06,-0.10,0.00,0
183,91.48,-0.42,0.40,7.22,-5.10,89.07,100259.76,25.14,0.00,2,-0.00,-4.72,-0.09,0.00,0
184,91.59,-0.38,0.58,11.10,-5.31,89.11,100259.20,25.14,0.00,2,-0.00,-4.61,-0.09,0.00,0
185,91.70,-0.40,0.96,11.88,-5.50,89.17,100258.53,25.14,0.00,2,-0.00,-5.85,-0.10,0.00,0
186,91.80,-0.08,0.79,8.41,-5.67,89.16,100258.68,25.14,0.00,2,-0.00,-5.40,-0.10,0.00,0
187,91.91,0.20,0.52,8.83,-5.86,89.27,100257.38,25.14,0.00,2,-0.00,-5.40,-0.10,0.00,0
188,92.02,0.51,0.57,10.29,-6.07,89.22,100257.95,25.15,0.00,2,-0.00,-5.29,-0.10,0.00,0
189,92.13,0.62,0.74,11.09,-6.26,89.37,100256.07,25.15,0.00,2,-0.00,-5.18,-0.10,0.00,0
190,92.23,0.41,0.72,12.34,-6.42,89.37,100256.16,25.14,0.00,2,-0.00,-5.18,-0.10,0.00,0
191,92.34,0.05,0.80,9.69,-6.57,89.46,100255.00,25.14,0.00,2,-0.00,-5.18,-0.10,0.00,0
192,92.45,0.23,0.65,6.12,-6.74,89.41,100255.65,25.14,0.00,2,-0.00,-5.18,-0.10,0.00,0
193,92.55,0.80,0.26,7.06,-6.93,89.56,100253.92,25.14,0.00,2,-0.00,-5.18,-0.10,0.00,0
194,92.66,1.32,-0.10,7.33,-7.17,89.55,100254.04,25.14,0.00,2,-0.00,-5.18,-0.10,0.00,0
195,92.77,0.47,0.50,2.99,-7.44,89.51,100254.48,25.15,0.00,2,-0.00,-5.18,-0.10,0.00,0
196,92.88,0.42,0.82,2.29,-7.79,89.43,100255.39,25.15,0.00,2,-0.00,-5.18,-0.10,0.00,0
197,92.98,0.77,1.18,6.48,-8.18,89.29,100257.16,25.15,0.00,2,-0.00,-5.18,-0.10,0.00,0
198,93.09,0.63,2.13,15.58,-8.62,89.22,100257.98,25.15,0.00,2,-0.00,-5.18,-0.10,0.00,0
199,93.20,-0.08,2.01,20.55,-8.97,89.00,100260.58,25.15,0.00,2,-0.00,-5.18,-0.10,0.00,0
200,93.30,-0.27,2.14,21.65,-9.18,89.00,100260.51,25.15,0.00,2,-0.00,-5.18,-0.10,0.00,0
201,93.41,-0.06,2.12,13.51,-9.29,89.13,100259.01,25.15,0.00,2,-0.00,-5.18,-0.10,0.00,0
202,93.52,-0.41,1.21,1.14,-9.38,89.38,100256.05,25.14,0.00,2,-0.00,-5.18,-0.10,0.00,0
203,93.63,0.14,0.39,0.08,-9.55,89.48,100254.87,25.13,0.00,2,-0.00,-5.18,-0.10,0.00,0
204,93.73,0.68,0.32,2.97,-9.81,89.55,100253.94,25.13,0.00,2,-0.00,-5.74,-1.00,0.00,0
205,93.84,0.66,0.78,4.60,-10.17,89.46,100255.02,25.13,0.00,2,-0.00,-5.51,-0.11,0.00,0
206,93.95,0.00,1.55,12.12,-10.58,89.42,100255.52,25.13,0.00,2,-0.00,-5.40,-0.10,0.00,0
207,94.05,-0.47,1.33,15.58,-10.93,89.15,100258.81,25.13,0.00,2,-0.00,-5.29,-0.10,0.00,0
208,94.16,-0.34,0.57,14.45,-11.24,89.21,100258.04,25.14,0.00,2,-0.00,-5.18,-0.10,0.00,0
209,94.27,0.32,0.74,13.47,-11.50,89.16,100258.66,25.14,0.00,2,-0.00,-5.18,-0.10,0.00,0
210,94.38,0.64,0.91,14.35,-11.71,89.12,100259.16,25.15,0.00,2,-0.00,-5.18,1.00,0.00,0
211,94.48,0.30,0.69,13.33,-11.86,89.15,100258.82,25.15,0.00,2,-0.00,-4.50,-0.08,0.00,0
212,94.59,0.38,1.02,7.18,-11.99,89.17,100258.49,25.15,0.00,2,-0.00,-4.50,-0.09,0.00,0
213,94.70,0.50,1.21,1.31,-12.17,89.51,100254.46,25.15,0.00,2,-0.00,-4.50,-0.09,0.00,0
214,94.80,1.16,-0.00,0.57,-12.42,89.67,100252.60,25.15,0.00,2,-0.00,-4.50,-0.09,0.00,0
215,94.91,1.41,0.16,6.09,-12.79,89.46,100255.02,25.15,0.00,2,-0.00,-4.50,-0.09,0.00,0
216,95.02,0.52,1.54,9.25,-13.20,89.33,100256.63,25.15,0.00,2,-0.00,-4.50,-0.09,0.00,0
217,95.13,0.36,3.26,13.94,-13.61,89.21,100258.02,25.15,0.00,2,-0.00,-4.50,-0.09,0.00,0
218,95.23,0.82,3.02,15.74,-13.93,89.15,100258.77,25.16,0.00,2,-0.00,-4.50,-0.09,0.00,0
219,95.34,0.75,1.89,16.02,-14.21,88.98,100260.73,25.16,0.00,2,-0.00,-4.50,-0.09,0.00,0
220,95.45,0.67,0.75,12.52,-14.42,89.12,100259.05,25.16,0.00,2,-0.00,-4.50,-0.09,0.00,0
221,95.55,0.60,0.68,7.89,-14.59,89.30,100256.98,25.16,0.00,2,-0.00,-4.50,-0.09,0.00,0
222,95.66,0.58,1.01,3.00,-14.81,89.36,100256.26,25.16,0.00,2,-0.00,-4.50,-0.09,0.00,0
223,95.77,0.48,1.05,2.14,-15.10,89.36,100256.20,25.16,0.00,2,-0.00,-6.64,-0.13,0.00,0
224,95.88,0.02,1.02,10.08,-15.47,89.21,100258.07,25.17,0.00,2,-0.00,-5.40,-0.10,0.00,0
225,95.98,-0.34,1.84,17.54,-15.80,89.11,100259.21,25.17,0.00,2,-0.00,-5.40,-0.10,0.00,0
226,96.09,-0.84,1.87,19.80,-16.06,89.17,100258.48,25.17,0.00,2,-0.00,-5.29,-0.10,0.00,0
227,96.20,-0.45,1.38,14.41,-16.21,89.16,100258.68,25.17,0.00,2,-0.00,-5.29,-0.10,0.00,0
228,96.30,0.87,0.72,3.42,-16.33,89.24,100257.65,25.18,0.00,2,-0.00,-5.18,-0.10,0.00,0
229,96.41,1.75,0.33,0.95,-16.54,89.36,100256.30,25.18,0.00,2,-0.00,-5.18,-0.10,0.00,0
230,96.52,1.12,0.22,2.06,-16.84,89.42,100255.56,25.18,0.00,2,-0.00,-5.18,-0.10,0.00,0
231,96.63,0.20,1.50,12.36,-17.22,89.32,100256.78,25.18,0.00,2,-0.00,-5.18,-0.10,0.00,0
232,96.73,-0.16,2.02,16.53,-17.54,89.18,100258.40,25.18,0.00,2,-0.00,-5.18,-0.10,0.00,0
233,96.84,-0.77,1.74,15.59,-17.82,89.13,100259.04,25.19,0.00,2,-0.00,-5.18,-0.10,0.00,0
234,96.95,-0.87,1.46,16.03,-18.02,89.18,100258.41,25.18,0.00,2,-0.00,-5.18,-0.10,0.00,0
235,97.05,-0.33,1.35,16.10,-18.14,89.27,100257.30,25.18,0.00,2,-0.00,-5.18,-0.10,0.00,0
236,97.16,0.84,1.21,7.50,-18.21,89.42,100255.57,25.18,0.00,2,-0.00,-5.18,-0.10,0.00,0
237,97.27,0.99,0.20,-2.12,-18.34,89.59,100253.55,25.17,0.00,2,-0.00,-5.18,-0.10,0.00,0
238,97.38,0.55,-0.28,-2.07,-18.61,89.67,100252.58,25.17,0.00,2,-0.00,-5.18,-0.10,0.00,0
239,97.48,0.14,0.37,5.27,-18.97,89.44,100255.28,25.18,0.00,2,-0.00,-5.18,-0.10,0.00,0
240,97.59,-0.32,1.65,15.39,-19.41,89.43,100255.48,25.17,0.00,2,-0.00,-5.18,-0.10,0.00,0
241,97.70,-0.65,1.82,16.57,-19.78,89.25,100257.53,25.18,0.00,2,-0.00,-5.18,-0.10,0.00,0
242,97.80,-0.55,1.30,16.72,-20.05,89.17,100258.54,25.18,0.00,2,-0.00,-5.18,-0.10,0.00,0
243,97.91,-0.45,1.33,16.18,-20.27,89.13,100258.97,25.18,0.00,2,-0.00,-5.18,-0.10,0.00,0
244,98.02,-0.81,1.65,6.49,-20.43,89.40,100255.77,25.18,0.00,2,-0.00,-5.18,-0.10,0.00,0
245,98.13,-0.02,1.35,-1.49,-20.65,89.33,100256.62,25.18,0.00,2,-0.00,-5.18,-0.10,0.00,0
246,98.23,1.51,0.46,2.28,-20.95,89.34,100256.57,25.18,0.00,2,-0.00,-5.18,-0.10,0.00,0
247,98.34,0.35,0.79,10.47,-21.36,89.43,100255.45,25.19,0.00,2,-0.00,-5.18,-0.10,0.00,0
248,98.45,-0.95,1.48,12.10,-21.77,89.27,100257.29,25.19,0.00,2,-0.00,-5.18,-0.10,0.00,0
249,98.55,-1.61,2.00,12.79,-22.12,89.11,100259.29,25.20,0.00,2,-0.00,-5.18,-0.10,0.00,0
250,98.66,-1.19,1.82,12.96,-22.47,89.04,100260.02,25.20,0.00,2,-0.00,-5.51,-0.13,0.00,0
251,98.77,-0.50,0.95,13.75,-22.77,88.99,100260.71,25.20,0.00,2,-0.00,-4.50,-0.09,0.00,0
252,98.88,-0.18,0.71,13.32,-23.03,88.99,100260.62,25.20,0.00,2,-0.00,-4.50,-0.09,0.00,0
253,98.98,0.39,1.34,8.23,-23.24,89.19,100258.29,25.20,0.00,2,-0.00,-4.50,-0.09,0.00,0
254,99.09,0.72,1.43,3.80,-23.50,89.32,100256.76,25.19,0.00,2,-0.00,-4.50,-0.09,0.00,0
255,99.20,0.24,0.74,5.84,-23.83,89.22,100257.86,25.20,0.00,2,-0.00,-4.50,-0.09,0.00,0
256,99.30,-0.08,1.00,12.79,-24.16,89.18,100258.44,25.20,0.00,2,-0.00,-4.50,-0.09,0.00,0
257,99.41,-0.43,1.32,17.65,-24.47,89.09,100259.41,25.21,0.00,2,-0.00,-4.50,-0.09,0.00,0
258,99.52,0.15,1.14,12.34,-24.69,89.12,100259.18,25.21,0.00,2,-0.00,-6.19,-0.17,0.00,0
259,99.63,0.66,1.62,6.97,-24.88,89.20,100258.14,25.21,0.00,2,-0.00,-5.40,-0.10,0.00,0
260,99.73,1.47,1.26,2.03,-25.10,89.35,100256.43,25.22,0.00,2,-0.00,-5.40,-0.10,0.00,0
261,99.84,0.94,0.85,4.68,-25.41,89.34,100256.45,25.22,0.00,2,-0.00,-5.18,-0.10,0.00,0
262,99.95,0.18,0.97,9.00,-25.79,89.24,100257.66,25.22,0.00,2,-0.00,-5.18,-0.10,0.00,0
263,100.05,-0.21,1.00,13.43,-26.13,89.19,100258.30,25.23,0.00,2,-0.00,-5.18,-0.10,0.00,0
264,100.16,-0.20,1.07,16.92,-26.44,89.22,100257.95,25.23,0.00,2,-0.00,-5.18,-0.10,0.00,0
265,100.27,0.09,1.04,12.73,-26.68,89.23,100257.85,25.24,0.00,2,-0.00,-5.18,-0.10,0.00,0
266,100.38,0.62,1.22,7.10,-26.89,89.37,100256.18,25.24,0.00,2,-0.00,-5.18,-0.10,0.00,0
267,100.48,1.59,1.56,1.52,-27.11,89.53,100254.22,25.24,0.00,2,-0.00,-5.18,-0.10,0.00,0
268,100.59,1.14,1.34,0.95,-27.45,89.41,100255.70,25.24,0.00,2,-0.00,-5.18,-0.10,0.00,0
269,100.70,-0.14,0.86,7.19,-27.88,89.37,100256.15,25.24,0.00,2,-0.00,-5.18,-0.10,0.00,0
270,100.80,-0.76,1.23,11.77,-28.30,89.24,100257.73,25.24,0.00,2,-0.00,-5.18,-0.10,0.00,0
271,100.91,-0.80,3.08,16.76,-28.73,89.06,100259.85,25.23,0.00,2,-0.00,-5.18,-0.10,0.00,0
272,101.02,-1.35,3.51,20.03,-29.06,88.96,100261.04,25.23,0.00,2,-0.00,-5.18,-0.10,0.00,0
273,101.13,-2.45,1.77,24.70,-29.26,89.04,100260.12,25.22,0.00,2,-0.00,-5.18,-0.10,0.00,0
274,101.23,-1.12,0.38,14.53,-29.30,89.27,100257.38,25.22,0.00,2,-0.00,-5.18,-0.10,0.00,0
275,101.34,1.13,1.28,-5.80,-29.36,89.50,100254.58,25.21,0.00,2,-0.00,-5.18,-0.10,0.00,0
276,101.45,0.92,-0.44,-6.26,-29.60,89.70,100252.19,25.21,0.00,2,-0.00,-5.18,-0.10,0.00,0
277,101.55,0.19,-1.34,-2.54,-29.99,89.76,100251.56,25.21,0.00,2,-0.00,-5.18,-0.10,0.00,0
278,101.66,0.11,-0.70,1.20,-30.56,89.66,100252.65,25.21,0.00,2,-0.00,-5.18,-0.10,0.00,0
279,101.77,0.61,1.32,7.51,-31.22,89.53,100254.23,25.21,0.00,2,-0.00,-5.18,-0.10,0.00,0
280,101.88,-2.45,1.59,21.32,-31.88,89.16,100258.66,25.20,0.00,2,-0.00,-5.18,-0.10,0.00,0
281,101.98,-5.80,1.22,21.79,-32.37,88.76,100263.34,25.20,0.00,2,-0.00,-5.18,-0.10,0.00,0
282,102.09,-6.93,1.65,19.10,-32.79,88.67,100264.47,25.21,0.00,2,-0.00,-5.18,-0.10,0.00,0
283,102.20,-6.25,1.33,19.22,-33.08,88.66,100264.59,25.20,0.00,2,-0.00,-5.18,-0.10,0.00,0
284,102.30,-3.44,0.14,17.68,-33.25,88.80,100262.88,25.20,0.00,2,-0.00,-5.18,-0.10,0.00,0
285,102.41,-0.71,0.19,10.58,-33.36,89.12,100259.17,25.19,0.00,2,-0.00,-5.06,-0.10,0.00,0
286,102.52,1.15,0.01,-3.55,-33.51,89.58,100253.67,25.17,0.00,2,-0.00,-5.06,-0.10,0.00,0
287,102.63,1.07,-0.35,-4.75,-33.81,89.69,100252.32,25.16,0.00,2,-0.00,-5.06,-0.10,0.00,0
288,102.73,1.91,-0.49,-4.96,-34.24,89.88,100250.02,25.16,0.00,2,-0.00,-5.06,-0.10,0.00,0
289,102.84,2.23,0.34,-0.09,-34.87,89.81,100250.86,25.17,0.00,2,-0.00,-5.06,-0.10,0.00,0
290,102.95,3.74,2.60,7.82,-35.62,89.43,100255.48,25.17,0.00,2,-0.00,-5.06,-0.10,0.00,0
291,103.05,1.50,4.04,17.85,-36.29,89.06,100259.80,25.17,0.00,2,-0.00,-5.06,-0.10,0.00,0
292,103.16,-1.94,2.58,21.07,-36.95,89.00,100260.57,25.17,0.00,2,-0.00,-5.06,-0.10,0.00,0
293,103.27,-5.89,1.42,22.27,-37.46,88.79,100263.09,25.18,0.00,2,-0.00,-5.74,-1.00,0.00,0
294,103.38,-5.13,1.06,19.07,-37.84,88.89,100261.80,25.17,0.00,2,-0.00,-6.52,-0.13,0.00,0
295,103.48,-2.10,0.06,13.64,-38.08,88.97,100260.88,25.16,0.00,2,-0.00,-5.40,-0.10,0.00,0
296,103.59,2.24,0.49,1.61,-38.32,89.28,100257.25,25.15,0.00,2,-0.00,-5.29,-0.10,0.00,0
297,103.70,3.06,0.21,-3.09,-38.65,89.70,100252.26,25.14,0.00,2,-0.00,-5.18,-0.10,0.00,0
298,103.80,2.40,-0.23,-2.43,-39.09,89.80,100250.97,25.14,0.00,2,-0.00,-5.18,-0.10,0.00,0
299,103.91,2.37,-0.33,-1.27,-39.72,89.73,100251.82,25.15,0.00,2,-0.00,-5.18,-0.10,0.00,0
300,104.02,2.03,1.56,3.83,-40.47,89.72,100251.99,25.15,0.00,2,-0.00,-5.18,-0.10,0.00,0
301,104.13,2.07,4.60,9.57,-41.28,89.38,100256.02,25.15,0.00,2,-0.00,-4.61,-0.09,0.00,0
302,104.23,-0.22,5.91,15.06,-42.00,89.17,100258.50,25.15,0.00,2,-0.00,-4.61,-0.09,0.00,0
303,104.34,-2.00,4.34,17.63,-42.73,88.91,100261.66,25.15,0.00,2,-0.00,-4.61,-0.09,0.00,0
304,104.45,-4.87,2.64,21.72,-43.36,88.76,100263.34,25.15,0.00,2,-0.00,-4.61,-0.09,0.00,0
305,104.55,-6.09,2.49,23.48,-43.81,88.77,100263.25,25.15,0.00,2,-0.00,-4.61,-0.09,0.00,0
306,104.66,-1.21,1.10,11.37,-44.18,89.07,100259.77,25.14,0.00,2,-0.00,-4.61,-0.09,0.00,0
307,104.77,2.66,0.71,-2.22,-44.55,89.24,100257.71,25.13,0.00,2,-0.00,-4.61,-0.09,0.00,0
308,104.88,2.04,1.15,-2.94,-45.05,89.53,100254.23,25.12,0.00,2,-0.00,-4.61,-0.09,0.00,0
309,104.98,0.61,1.20,1.26,-45.63,89.76,100251.48,25.12,0.00,2,-0.00,-4.61,-0.09,0.00,0
310,105.09,-0.39,0.76,2.70,-46.37,89.72,100251.92,25.12,0.00,2,-0.00,-4.61,-0.09,0.00,0
311,105.20,-0.45,1.86,4.64,-47.19,89.65,100252.85,25.13,0.00,2,-0.00,-4.61,-0.09,0.00,0
312,105.30,2.86,4.66,9.34,-47.98,89.50,100254.55,25.14,0.00,2,-0.00,-4.61,-0.09,0.00,0
313,105.41,1.53,4.58,11.20,-48.86,89.37,100256.17,25.14,0.00,2,-0.00,-4.61,-0.09,0.00,0
314,105.52,-3.06,2.06,15.11,-49.71,89.14,100258.87,25.15,0.00,2,-0.00,-4.61,-0.09,0.00,0
315,105.63,-4.49,1.32,17.77,-50.50,88.99,100260.70,25.16,0.00,2,-0.00,-4.61,-0.09,0.00,0
316,105.73,-5.78,1.10,18.62,-51.13,88.86,100262.21,25.16,0.00,2,-0.00,-4.61,-0.09,0.00,0
317,105.84,-5.51,1.80,17.82,-51.72,88.89,100261.86,25.16,0.00,2,-0.00,-4.61,-0.09,0.00,0
318,105.95,-2.91,1.15,10.31,-52.23,88.96,100261.01,25.15,0.00,2,-0.00,-4.61,-0.09,0.00,0
319,106.05,-2.30,0.36,0.44,-52.69,89.29,100257.10,25.14,0.00,2,-0.00,-4.61,-0.09,0.00,0
320,106.16,-0.60,0.92,-8.52,-53.34,89.59,100253.47,25.14,0.00,2,-0.00,-4.61,-0.09,0.00,0
321,106.27,1.24,1.02,-2.87,-54.18,89.64,100252.95,25.14,0.00,2,-0.00,-4.61,-0.09,0.00,0
322,106.38,1.88,2.18,9.06,-55.14,89.50,100254.59,25.14,0.00,2,-0.00,-4.61,-0.09,0.00,0
323,106.48,0.77,3.10,12.91,-56.02,89.38,100256.02,25.14,0.00,2,-0.00,-4.61,-0.09,0.00,0
324,106.59,0.48,3.31,15.10,-56.94,89.27,100257.36,25.14,0.00,2,-0.00,-4.61,-0.09,0.00,0
325,106.70,-0.33,2.85,16.03,-57.80,88.99,100260.63,25.16,0.00,2,-0.00,-4.61,-0.09,0.00,0
326,106.80,-1.01,2.03,14.62,-58.51,89.07,100259.73,25.16,0.00,2,-0.00,-4.61,-0.09,0.00,0
327,106.91,-0.84,1.32,9.87,-59.26,89.08,100259.64,25.17,0.00,2,-0.00,-4.61,-0.09,0.00,0
328,107.02,-0.36,1.37,6.89,-60.00,89.13,100259.02,25.18,0.00,2,-0.00,-4.61,-0.09,0.00,0
329,107.13,0.65,1.35,5.46,-60.78,89.11,100259.27,25.18,0.00,2,-0.00,-4.61,-0.09,0.00,0
330,107.23,0.89,1.54,6.32,-61.54,89.22,100257.87,25.19,0.00,2,-0.00,-4.61,-0.09,0.00,0
331,107.34,1.09,2.03,9.00,-62.41,89.24,100257.66,25.19,0.00,2,-0.00,-4.61,-0.09,0.00,0
332,107.45,1.33,1.84,10.61,-63.28,89.22,100257.90,25.19,0.00,2,-0.00,-4.61,-0.09,0.00,0
333,107.55,1.32,1.61,10.39,-64.07,89.16,100258.61,25.20,0.00,2,-0.00,-4.61,-0.09,0.00,0
334,107.66,1.18,1.72,8.61,-64.94,89.15,100258.79,25.21,0.00,2,-0.00,-4.61,-0.09,0.00,0
335,107.77,1.05,2.04,8.13,-65.81,89.09,100259.51,25.21,0.00,2,-0.00,-4.72,1.00,0.00,0
336,107.88,0.38,2.40,9.21,-66.71,88.99,100260.68,25.22,0.00,2,-0.00,-5.40,-0.10,0.00,0
337,107.98,-0.50,2.25,10.46,-67.53,88.92,100261.50,25.22,0.00,2,-0.00,-5.40,-0.10,0.00,0
338,108.09,-1.23,1.07,11.42,-68.42,88.89,100261.80,25.23,0.00,2,-0.00,-5.29,-0.10,0.00,0
339,108.20,-0.93,0.71,10.48,-69.29,88.85,100262.32,25.23,0.00,2,-0.00,-5.18,-0.10,0.00,0
340,108.30,-0.96,0.89,9.54,-70.08,88.94,100261.28,25.23,0.00,2,-0.00,-5.18,-0.10,0.00,0
341,108.41,-0.75,0.96,11.15,-70.95,88.91,100261.62,25.23,0.00,2,-0.00,-5.18,-0.10,0.00,0
342,108.52,-0.52,0.90,12.36,-71.80,88.92,100261.51,25.23,0.00,2,-0.00,-5.18,-0.10,0.00,0
343,108.63,-0.20,0.47,10.87,-72.63,89.04,100260.06,25.23,0.00,2,-0.00,-5.18,-0.10,0.00,0
344,108.73,-0.31,0.50,6.53,-73.37,89.16,100258.63,25.23,0.00,2,-0.00,-5.18,-0.10,0.00,0
345,108.84,0.03,0.99,3.62,-74.23,89.13,100258.95,25.23,0.00,2,-0.00,-5.18,-0.10,0.00,0
346,108.95,0.10,1.02,3.59,-75.16,89.06,100259.81,25.23,0.00,2,-0.00,-5.18,-0.10,0.00,0
347,109.05,-0.45,0.62,9.71,-76.05,88.98,100260.79,25.23,0.00,2,-0.00,-5.18,-0.10,0.00,0
348,109.16,-0.61,0.52,11.81,-77.04,88.81,100262.76,25.23,0.00,2,-0.00,-5.18,-0.10,0.00,0
349,109.27,-0.76,0.28,11.13,-78.00,88.81,100262.85,25.23,0.00,2,-0.00,-5.18,-0.10,0.00,0
350,109.38,-1.31,-0.34,12.46,-78.94,88.71,100263.95,25.23,0.00,2,-0.00,-5.18,-0.10,0.00,0
351,109.48,-1.71,0.20,13.12,-79.77,88.67,100264.50,25.23,0.00,2,-0.00,-5.18,-0.10,0.00,0
352,109.59,-1.57,1.05,13.14,-80.65,88.59,100265.46,25.24,0.00,2,-0.00,-5.18,-0.10,0.00,0
353,109.70,-1.65,1.12,13.61,-81.49,88.66,100264.58,25.24,0.00,2,-0.00,-5.18,-0.10,0.00,0
354,109.80,-2.41,1.47,13.39,-82.21,88.71,100264.05,25.24,0.00,2,-0.00,-5.18,-0.10,0.00,0
355,109.91,-2.37,1.50,10.46,-82.97,88.94,100261.31,25.23,0.00,2,-0.00,-5.18,-0.10,0.00,0
356,110.02,-1.56,0.75,6.92,-83.73,89.09,100259.48,25.23,0.00,2,-0.00,-5.18,-0.10,0.00,0
357,110.13,1.04,0.12,1.83,-84.53,89.21,100258.08,25.23,0.00,2,-0.00,-5.18,-0.10,0.00,0
358,110.23,1.38,0.54,1.78,-85.34,89.29,100257.10,25.23,0.00,2,-0.00,-5.18,-0.10,0.00,0
359,110.34,0.30,0.91,8.01,-86.32,89.09,100259.52,25.23,0.00,2,-0.00,-5.18,-0.10,0.00,0
360,110.45,-0.78,1.22,13.66,-87.31,89.04,100260.02,25.23,0.00,2,-0.00,-6.30,-0.16,0.00,0
361,110.55,-1.07,1.24,17.65,-88.17,88.98,100260.73,25.23,0.00,2,-0.00,-5.40,-0.10,0.00,0
362,110.66,-0.79,1.10,16.05,-89.03,88.85,100262.32,25.23,0.00,2,-0.00,-5.29,-0.10,0.00,0
363,110.77,-0.75,1.16,10.94,-89.82,88.88,100262.04,25.24,0.00,2,-0.00,-5.29,-0.10,0.00,0
364,110.88,0.67,0.97,6.80,-90.61,88.98,100260.79,25.24,0.00,2,-0.00,-4.84,-0.09,0.00,0
365,110.98,1.53,1.47,3.02,-91.37,88.93,100261.43,25.25,0.00,2,-0.00,-4.61,-0.09,0.00,0
366,111.09,1.42,1.64,1.78,-92.28,88.90,100261.77,25.25,0.00,2,-0.00,-4.61,-0.09,0.00,0
367,111.20,0.10,1.02,7.01,-93.28,88.78,100263.22,25.26,0.00,2,-0.00,-4.61,-0.09,0.00,0
368,111.30,-0.89,0.88,13.33,-94.21,88.83,100262.55,25.26,0.00,2,-0.00,-4.61,-0.09,0.00,0
369,111.41,-1.20,1.13,16.60,-95.19,88.57,100265.64,25.26,0.00,2,-0.00,-6.30,-0.12,0.00,0
370,111.52,-1.68,1.18,13.02,-96.10,88.69,100264.23,25.26,0.00,2,-0.00,-5.40,-0.10,0.00,0
371,111.63,-1.74,1.16,12.55,-96.96,88.65,100264.69,25.26,0.00,2,-0.00,-5.40,-0.10,0.00,0
372,111.73,-1.62,1.39,11.41,-97.73,88.84,100262.41,25.26,0.00,2,-0.00,-5.40,-0.10,0.00,0
373,111.84,-1.09,1.48,9.05,-98.55,88.92,100261.53,25.26,0.00,2,-0.00,-5.40,-0.10,0.00,0
374,111.95,0.94,0.66,5.97,-99.41,88.99,100260.62,25.26,0.00,2,-0.00,-5.29,-0.10,0.00,0
375,112.05,1.54,0.82,6.62,-100.23,89.05,100260.00,25.26,0.00,2,-0.00,-4.61,-0.08,0.00,0
376,112.16,1.54,1.72,8.70,-101.15,89.03,100260.12,25.27,0.00,2,-0.00,-4.61,-0.09,0.00,0
377,112.27,1.41,1.64,5.62,-102.10,89.01,100260.47,25.27,0.00,2,-0.00,-6.08,-0.12,0.00,0
378,112.38,0.71,1.24,3.88,-103.09,88.93,100261.41,25.28,0.00,2,-0.00,-5.40,-0.10,0.00,0
379,112.48,-0.31,1.28,10.93,-104.05,88.84,100262.51,25.28,0.00,2,-0.00,-5.40,-0.10,0.00,0
380,112.59,-0.45,1.61,15.04,-105.09,88.72,100263.85,25.28,0.00,2,-0.00,-5.40,-0.10,0.00,0
381,112.70,-0.32,1.79,13.10,-106.07,88.71,100264.00,25.29,0.00,2,-0.00,-5.40,-0.10,0.00,0
382,112.80,-0.16,1.50,10.94,-106.93,88.75,100263.54,25.29,0.00,2,-0.00,-5.29,-0.10,0.00,0
383,112.91,-0.21,1.29,11.02,-107.86,88.65,100264.77,25.29,0.00,2,-0.00,-5.29,-0.10,0.00,0
384,113.02,-0.24,1.29,11.17,-108.77,88.73,100263.74,25.30,0.00,2,-0.00,-4.61,-0.08,0.00,0
385,113.13,-0.04,1.33,10.39,-109.67,88.80,100262.95,25.30,0.00,2,-0.00,-4.61,-0.09,0.00,0
386,113.23,0.20,1.57,8.26,-110.49,88.80,100262.88,25.30,0.00,2,-0.00,-4.61,-0.09,0.00,0
387,113.34,0.54,1.84,6.35,-111.42,88.81,100262.84,25.30,0.00,2,-0.00,-4.61,-0.09,0.00,0
388,113.45,0.99,1.91,7.34,-112.38,88.85,100262.30,25.30,0.00,2,-0.00,-4.61,-0.09,0.00,0
389,113.55,0.94,1.83,7.05,-113.29,88.81,100262.80,25.30,0.00,2,-0.00,-4.61,-0.09,0.00,0
390,113.66,0.50,1.52,6.59,-114.32,88.71,100264.01,25.30,0.00,2,-0.00,-4.61,-0.09,0.00,0
391,113.77,0.28,1.28,8.88,-115.38,88.78,100263.23,25.31,0.00,2,-0.00,-4.61,-0.09,0.00,0
392,113.88,0.55,1.78,12.83,-116.44,88.76,100263.44,25.31,0.00,2,-0.00,-4.61,-0.09,0.00,0
393,113.98,0.47,1.96,12.18,-117.38,88.74,100263.61,25.31,0.00,2,-0.00,-4.61,-0.09,0.00,0
394,114.09,-0.23,1.54,10.32,-118.39,88.71,100264.01,25.30,0.00,2,-0.00,-4.61,-0.09,0.00,0
395,114.20,-0.33,1.22,10.23,-119.39,88.64,100264.88,25.31,0.00,2,-0.00,-4.61,-0.09,0.00,0
396,114.30,-0.46,1.26,10.18,-120.30,88.54,100266.05,25.31,0.00,2,-0.00,-4.61,-0.09,0.00,0
397,114.41,-0.27,1.24,10.24,-121.29,88.47,100266.87,25.31,0.00,2,-0.00,-4.61,-0.09,0.00,0
398,114.52,-0.12,1.18,9.80,-122.28,88.53,100266.20,25.32,0.00,2,-0.00,-4.61,-0.09,0.00,0
399,114.63,-0.29,0.83,9.82,-123.27,88.55,100265.95,25.32,0.00,2,-0.00,-4.61,-0.09,0.00,0
400,114.73,-0.31,0.75,9.87,-124.17,88.55,100265.88,25.32,0.00,2,-0.00,-4.61,-0.09,0.00,0
401,114.84,-0.18,0.68,9.92,-125.16,88.56,100265.73,25.33,0.00,2,-0.00,-4.61,-0.09,0.00,0
402,114.95,-0.27,0.75,9.66,-126.15,88.57,100265.62,25.33,0.00,2,-0.00,-4.61,-0.09,0.00,0
403,115.05,-0.74,0.95,9.57,-127.05,88.57,100265.68,25.33,0.00,2,-0.00,-4.61,-0.09,0.00,0
404,115.16,-0.82,0.87,9.81,-128.04,88.59,100265.47,25.34,0.00,2,-0.00,-6.08,-0.16,0.00,0
405,115.27,-0.75,0.67,9.72,-129.04,88.60,100265.36,25.34,0.00,2,-0.00,-6.41,-1.00,0.00,0
406,115.38,-0.72,0.41,9.61,-130.03,88.54,100265.98,25.35,0.00,2,-0.00,-5.40,-0.10,0.00,0
407,115.48,-0.32,-0.25,9.75,-130.94,88.57,100265.72,25.35,0.00,2,-0.00,-5.29,-0.10,0.00,0
408,115.59,-0.21,-0.46,9.79,-131.93,88.58,100265.59,25.36,0.00,2,-0.00,-4.95,-0.09,0.00,0
409,115.70,-0.12,-0.51,9.78,-132.93,88.66,100264.63,25.36,0.00,2,-0.00,-4.61,-0.09,0.00,0
410,115.80,-0.03,-0.51,9.76,-133.84,88.69,100264.19,25.36,0.00,2,-0.00,-4.61,-0.09,0.00,0
411,115.91,-0.10,-0.41,9.72,-134.84,88.62,100265.02,25.37,0.00,2,-0.00,-4.61,-0.09,0.00,0
412,116.02,-0.18,-0.57,9.77,-135.84,88.66,100264.62,25.37,0.00,2,-0.00,-4.61,-0.09,0.00,0
413,116.13,-0.23,-0.78,9.74,-136.84,88.74,100263.67,25.37,0.00,2,-0.00,-4.61,-0.09,0.00,0
414,116.23,-0.11,-0.34,9.75,-137.75,88.71,100264.04,25.38,0.00,2,-0.00,-4.61,-0.09,0.00,0
415,116.34,-0.24,-0.24,9.74,-138.75,88.72,100263.87,25.38,0.00,2,-0.00,-4.61,-0.09,0.00,0
416,116.45,-0.32,-0.40,9.74,-139.76,88.65,100264.76,25.38,0.00,2,-0.00,-4.61,-0.09,0.00,0
417,116.55,-0.22,-0.44,9.72,-140.67,88.59,100265.42,25.38,0.00,2,-0.00,-4.61,-0.09,0.00,0
418,116.66,-0.20,-0.46,9.72,-141.67,88.66,100264.65,25.38,0.00,2,-0.00,-4.61,-0.09,0.00,0
419,116.77,-0.19,-0.23,9.81,-142.68,88.64,100264.88,25.38,0.00,2,-0.00,-4.61,-0.09,0.00,0
420,116.88,-0.09,0.03,9.69,-143.69,88.67,100264.42,25.38,0.00,2,-0.00,-4.61,-0.09,0.00,0
421,116.98,-0.21,0.09,9.71,-144.60,88.61,100265.23,25.39,0.00,2,-0.00,-4.61,-0.09,0.00,0
422,117.09,-0.21,0.05,9.66,-145.61,88.66,100264.58,25.39,0.00,2,-0.00,-4.61,-0.09,0.00,0
423,117.20,-0.31,-0.27,9.79,-146.62,88.64,100264.84,25.39,0.00,2,-0.00,-4.61,-0.09,0.00,0
424,117.30,-0.29,-0.47,9.83,-147.54,88.58,100265.49,25.40,0.00,2,-0.00,-4.61,-0.09,0.00,0
425,117.41,-0.20,-0.62,9.71,-148.55,88.57,100265.68,25.41,0.00,2,-0.00,-5.62,-0.10,0.00,0
426,117.52,-0.27,-0.55,9.73,-149.56,88.47,100266.83,25.41,0.00,2,-0.00,-5.40,-0.10,0.00,0
427,117.63,-0.32,-0.50,9.73,-150.58,88.44,100267.18,25.42,0.00,2,-0.00,-5.40,-0.10,0.00,0
